Folder: battery-analysis-project/Data/monotonic_segments (part 2)

File: Cycle 295_charge.csv
Current(A),Test_Time(s),Voltage(V),Charge_Capacity(Ah),dV/dQ(V/Ah),dQ/dV(Ah/V),Charge_Energy(Wh),Power(W)
0.14996,1129.154,4.1999,0.03634,0.0,0.0,0.15262,0.62982
0.15,79421.451,3.1431,0.0475,3.7377,0.27107,0.14374,0.47147
0.14998,79781.452,3.1925,0.0625,3.0891,0.32705,0.19126,0.47881
0.14999,80141.452,3.234,0.0775,2.6523,0.381,0.23947,0.48507
0.14999,80501.454,3.2698,0.0925,,0.43415,0.28825,0.49044
0.14999,80861.453,3.3013,0.10749,2.0187,0.49257,0.33753,0.49516
0.14999,81221.452,3.3291,0.12249,,0.56264,0.38726,0.49933
0.14999,81581.452,3.3532,0.13749,1.5645,0.65189,0.43738,0.50295
0.15,81941.454,3.3719,0.15249,1.1726,0.93236,0.48782,0.50579
0.15,82301.453,3.3832,0.16749,,,0.53849,0.50748
0.14998,82661.452,3.3908,0.18249,0.53443,,0.5893,0.50855
0.14999,83021.451,3.397,0.19749,0.0,2.5161,0.6402,0.50952
0.15,83381.453,3.4022,0.21249,,2.8427,0.69119,0.51033
0.14998,83741.451,3.4068,0.22749,,3.1847,0.74226,0.51095
0.14999,84101.452,3.4112,0.24249,0.30805,0.0,0.79339,0.51165
0.14998,84461.451,3.4153,0.25748,0.0,,0.84458,0.51223
0.15,84821.453,3.4194,0.27248,0.0,0.0,0.89584,0.51291
0.14998,85181.452,3.4233,0.28748,,0.0,0.94716,0.51343
0.14999,85541.452,3.4272,0.30248,,3.9115,0.99853,0.51405
0.14999,85901.452,3.4308,0.31748,0.25375,0.0,1.05,0.51459
0.14998,86261.452,3.4346,0.33248,0.0,0.0,1.1014,0.51512
0.14998,86621.452,3.4386,0.34748,0.0,0.0,1.153,0.51572
0.14999,86981.451,3.4428,0.36248,0.0,,1.2046,0.51639
0.14999,87341.453,3.447,0.37747,0.0,3.5269,1.2563,0.51702
0.15,87701.453,3.4514,0.39247,0.28923,0.0,1.308,0.51771
0.14997,88061.452,3.4562,0.40747,0.0,,1.3598,0.51833
0.14999,88421.454,3.4614,0.42247,0.32935,,1.4117,0.51918
0.14999,88781.451,3.4668,0.43747,0.0,2.7318,1.4636,0.51999
0.14999,89141.453,3.4728,0.45247,,,1.5157,0.52089
0.14998,89501.451,3.4787,0.46747,,,1.5678,0.52174
0.14998,89861.451,3.4846,0.48246,,0.0,1.62,0.52262
0.14999,90221.452,3.4907,0.49746,,,1.6723,0.52357
0.15,90581.453,3.4969,0.51246,,2.4533,1.7247,0.52454
0.14998,90941.452,3.5031,0.52746,0.0,,1.7772,0.52539
0.14999,91301.452,3.509,0.54246,0.0,0.0,1.8298,0.52631
0.14999,91661.454,3.515,0.55746,0.0,,1.8825,0.52721
0.14998,92021.452,3.5211,0.57246,0.40116,0.0,1.9353,0.52809
0.14999,92381.453,3.5271,0.58745,0.0,2.5303,1.9881,0.52903
0.14999,92741.452,3.5329,0.60245,0.0,,2.0411,0.5299
0.14998,93101.452,3.5385,0.61745,,,2.0941,0.5307
0.14999,93461.451,3.544,0.63245,,0.0,2.1472,0.53156
0.14998,93821.452,3.5497,0.64745,,,2.2004,0.53238
0.14998,94181.454,3.5552,0.66245,0.0,,2.2537,0.53321
0.15,94541.452,3.5606,0.67745,0.0,0.0,2.3071,0.53409
0.14999,94901.453,3.5657,0.69245,,0.0,2.3605,0.53482
0.14998,95261.452,3.5706,0.70744,,0.0,2.414,0.53552
0.14999,95621.451,3.5753,0.72244,,0.0,2.4676,0.53626
0.14999,95981.453,3.5798,0.73744,,0.0,2.5213,0.53693
0.14998,96341.452,3.5839,0.75244,0.0,,2.575,0.53751
0.14998,96701.452,3.5877,0.76744,0.0,,2.6288,0.53808
0.14999,97061.452,3.5914,0.78244,0.26033,,2.6826,0.53867
0.14999,97421.453,3.5951,0.79744,0.0,,2.7365,0.53923
0.15,97781.451,3.5988,0.81243,0.0,,2.7905,0.53982
0.14998,98141.452,3.6025,0.82743,0.0,4.1879,2.8445,0.5403
0.14999,98501.452,3.6058,0.84243,0.0,0.0,2.8985,0.54083
0.14999,98861.452,3.6091,0.85743,0.0,0.0,2.9526,0.54133
0.14998,99221.452,3.6126,0.87243,,,3.0068,0.54182
0.14999,99581.452,3.6159,0.88743,,,3.061,0.54235
0.14999,99941.451,3.6189,0.90243,0.0,,3.1153,0.5428
0.14999,100301.454,3.622,0.91743,0.0,4.7548,3.1696,0.54326
0.14999,100661.452,3.6252,0.93243,0.0,0.0,3.2239,0.54374
0.14998,101021.453,3.6284,0.94742,0.0,0.0,3.2783,0.54419
0.14999,101381.453,3.6315,0.96242,0.20641,0.0,3.3328,0.54469
0.15,101741.452,3.6346,0.97742,0.0,,3.3872,0.54519
0.14999,102101.451,3.6375,0.99242,0.0,,3.4418,0.54559
0.14999,102461.452,3.6406,1.0074,0.0,,3.4964,0.54605
0.15,102821.451,3.6437,1.0224,,,3.551,0.54656
0.14999,103181.452,3.6469,1.0374,,,3.6057,0.547
0.15,103541.453,3.6498,1.0524,,,3.6604,0.54747
0.14999,103901.453,3.653,1.0674,0.0,0.0,3.7152,0.54791
0.14999,104261.452,3.6562,1.0824,0.0,0.0,3.77,0.54839
0.14999,104621.452,3.6595,1.0974,0.0,0.0,3.8248,0.54889
0.14999,104981.453,3.6629,1.1124,,,3.8797,0.5494
0.14999,105341.453,3.6662,1.1274,,,3.9347,0.54989
0.14999,105701.454,3.6695,1.1424,,0.0,3.9897,0.55039
0.14999,106061.451,3.673,1.1574,,,4.0448,0.55091
0.14998,106421.453,3.6767,1.1724,,,4.0999,0.55143
0.14998,106781.451,3.6804,1.1874,,,4.1551,0.55199
0.14999,107141.452,3.6839,1.2024,0.0,,4.2103,0.55255
0.14999,107501.452,3.6877,1.2174,0.0,,4.2656,0.55312
0.15,107861.451,3.6918,1.2324,,,4.3209,0.55377
0.14999,108221.453,3.6958,1.2474,,,4.3763,0.55433
0.14998,108581.454,3.7,1.2624,,0.0,4.4318,0.55493
0.15,108941.453,3.7044,1.2774,0.0,,4.4873,0.55566
0.14999,109301.452,3.7086,1.2924,0.0,0.0,4.5429,0.55625
0.15,109661.452,3.7131,1.3074,0.0,,4.5986,0.55697
0.14999,110021.454,3.7177,1.3224,0.0,,4.6543,0.55762
0.14999,110381.454,3.7226,1.3374,,3.1891,4.7101,0.55835
0.14999,110741.452,3.7274,1.3524,,3.105,4.766,0.55907
0.14999,111101.451,3.7323,1.3674,,3.0876,4.8219,0.55981
0.14999,111461.454,3.7371,1.3824,,3.0092,4.8779,0.56053
0.14999,111821.451,3.7421,1.3974,,2.9936,4.934,0.56128
0.14999,112181.452,3.7471,1.4124,,2.9743,4.9902,0.56203
0.14999,112541.453,3.7524,1.4274,,2.967,5.0464,0.56282
0.14999,112901.451,3.7575,1.4424,,2.9443,5.1027,0.56359
0.14999,113261.452,3.7625,1.4574,,2.9418,5.1591,0.56434
0.14998,113621.452,3.7675,1.4724,,2.9575,5.2156,0.56505
0.15,113981.452,3.7726,1.4874,,2.9629,5.2722,0.56589
0.15,114341.453,3.7777,1.5024,,2.9859,5.3288,0.56666
0.15,114701.453,3.7827,1.5174,,2.9868,5.3855,0.56741
0.15,115061.452,3.7875,1.5324,,3.0262,5.4423,0.56813
0.14999,115421.452,3.7925,1.5474,,3.0084,5.4991,0.56884
0.14999,115781.452,3.7976,1.5624,,3.0248,5.556,0.5696
0.14998,116141.453,3.8026,1.5774,,3.029,5.613,0.57031
0.14998,116501.451,3.8074,1.5924,,3.0115,5.6701,0.57103
0.14997,116861.451,3.8124,1.6074,,2.9996,5.7272,0.57175
0.14998,117221.452,3.8176,1.6224,,2.9693,5.7844,0.57256
0.14997,117581.452,3.8228,1.6374,,2.9012,5.8417,0.57331
0.14999,117941.452,3.8279,1.6524,,,5.8991,0.57415
0.14999,118301.452,3.8331,1.6674,0.0,,5.9566,0.57493
0.14998,118661.451,3.8387,1.6824,0.0,,6.0141,0.57573
0.14998,119021.452,3.8442,1.6974,,0.0,6.0717,0.57655
0.14999,119381.451,3.8501,1.7124,,,6.1294,0.57748
0.14998,119741.452,3.8559,1.7274,0.0,,6.1872,0.57831
0.15,120101.452,3.8618,1.7424,0.39127,0.0,6.2451,0.57927
0.14999,120461.452,3.8677,1.7574,0.0,2.5429,6.3031,0.58012
0.14999,120821.452,3.8735,1.7724,0.0,,6.3611,0.58099
0.14998,121181.454,3.8791,1.7874,0.0,0.0,6.4193,0.58179
0.14999,121541.453,3.8844,1.8024,,0.0,6.4775,0.58262
0.14999,121901.451,3.8895,1.8174,,0.0,6.5358,0.58339
0.14998,122261.452,3.8939,1.8324,,0.0,6.5942,0.58401
0.14998,122621.451,3.8978,1.8474,,,6.6526,0.58459
0.14999,122981.453,3.9016,1.8624,,,6.7111,0.5852
0.15,123341.451,3.9052,1.8774,,,6.7696,0.58578
0.14999,123701.452,3.9086,1.8924,0.0,0.0,6.8282,0.58625
0.15,124061.453,3.9118,1.9073,,0.0,6.8869,0.58677
0.15,124421.452,3.9151,1.9223,,,6.9456,0.58727
0.14999,124781.453,3.918,1.9373,,,7.0043,0.58766
0.14998,125141.452,3.9211,1.9523,0.21141,,7.0631,0.58809
0.15,125501.452,3.9243,1.9673,0.0,0.0,7.1219,0.58865
0.15,125861.452,3.9279,1.9823,0.0,,7.1808,0.58919
0.14999,126221.453,3.9313,1.9973,0.22116,,7.2398,0.58966
0.14999,126581.451,3.9347,2.0123,0.0,0.0,7.2988,0.59017
0.15,126941.452,3.9385,2.0273,0.0,0.0,7.3578,0.59078
0.14999,127301.453,3.9427,2.0423,0.0,3.8032,7.4169,0.59137
0.14999,127661.454,3.9469,2.0573,0.0,0.0,7.4761,0.592
0.14999,128021.453,3.9512,2.0723,0.28648,,7.5353,0.59264
0.14998,128381.453,3.9558,2.0873,0.0,0.0,7.5946,0.59329
0.14999,128741.452,3.9608,2.1023,0.0,0.0,7.654,0.59408
0.14999,129101.451,3.9661,2.1173,,0.0,7.7134,0.59488
0.14999,129461.451,3.9714,2.1323,0.35001,0.0,7.7729,0.59567
0.14998,129821.452,3.9769,2.1473,0.0,,7.8326,0.59646
0.14998,130181.452,3.9827,2.1623,,2.5668,7.8922,0.59733
0.14999,130541.453,3.9889,2.1773,,,7.952,0.5983
0.14998,130901.453,3.9951,2.1923,,0.0,8.0119,0.59919
0.14999,131261.452,4.0013,2.2073,0.41742,,8.0719,0.60015
0.14999,131621.451,4.0076,2.2223,0.0,2.3404,8.1319,0.6011
0.14999,131981.452,4.0141,2.2373,0.0,,8.1921,0.60207
0.14999,132341.451,4.0207,2.2523,0.0,,8.2523,0.60306
0.14999,132701.452,4.0271,2.2673,,0.0,8.3127,0.60402
0.15,133061.452,4.0331,2.2823,,2.4098,8.3731,0.60497
0.14998,133421.453,4.0391,2.2973,,,8.4337,0.60578
0.14999,133781.452,4.0452,2.3123,0.0,0.0,8.4943,0.60674
0.14998,134141.452,4.0508,2.3273,0.0,,8.555,0.60754
0.14999,134501.452,4.0563,2.3423,,0.0,8.6158,0.6084
0.14999,134861.453,4.0613,2.3573,0.3538,0.0,8.6767,0.60915
0.15,135221.454,4.0661,2.3723,0.0,0.0,8.7376,0.60992
0.14999,135581.454,4.0706,2.3873,0.0,0.0,8.7987,0.61055
0.14999,135941.453,4.0746,2.4023,,,8.8598,0.61115
0.14999,136301.452,4.0777,2.4173,,,8.9209,0.61161
0.14999,136661.452,4.0803,2.4323,,0.0,8.9821,0.612
0.14999,137021.451,4.0823,2.4473,,6.4358,9.0433,0.6123
0.14997,137141.453,4.083,2.4523,,0.0,9.0637,0.61233

File: Cycle 295_discharge.csv
Current(A),Test_Time(s),Voltage(V),Discharge_Capacity(Ah),dV/dQ(V/Ah),dQ/dV(Ah/V),Discharge_Energy(Wh),Power(W)
-0.15002,14329.463,4.0691,0.40005,,13.23,1.6392,-0.61045
-0.15002,14689.463,4.0677,0.41505,,0.0,1.7002,-0.61024
-0.15002,15049.462,4.0658,0.43006,,0.0,1.7612,-0.60995
-0.15002,15409.462,4.0636,0.44506,,,1.8222,-0.60962
-0.15002,15769.462,4.0609,0.46006,,,1.8831,-0.60922
-0.15002,16129.463,4.0576,0.47506,,0.0,1.944,-0.60872
-0.15003,16489.465,4.0537,0.49006,0.21581,4.08,2.0049,-0.60818
-0.15002,16849.464,4.0493,0.50507,0.0,0.0,2.0657,-0.60748
-0.15002,17209.464,4.0448,0.52007,0.0,,2.1264,-0.6068
-0.15002,17569.463,4.0402,0.53507,,,2.187,-0.60611
-0.15002,17929.463,4.0351,0.55007,,0.0,2.2476,-0.60535
-0.15002,18289.462,4.03,0.56507,0.0,0.0,2.3081,-0.60458
-0.15002,18649.463,4.0245,0.58008,0.0,,2.3685,-0.60376
-0.15002,19009.464,4.0189,0.59508,,2.7253,2.4288,-0.60292
-0.15001,19369.462,4.0132,0.61008,,2.6021,2.4891,-0.60202
-0.15004,19729.462,4.0071,0.62508,0.0,,2.5492,-0.60123
-0.15002,20089.463,4.001,0.64008,,,2.6093,-0.60023
-0.15001,20449.462,3.9949,0.65509,,0.0,2.6693,-0.59927
-0.15002,20809.464,3.9886,0.67009,,2.3997,2.7292,-0.59837
-0.15001,21169.463,3.9822,0.68509,,,2.789,-0.59737
-0.15002,21529.462,3.976,0.70009,,0.0,2.8487,-0.59648
-0.15003,21889.463,3.9702,0.71509,0.0,,2.9083,-0.59565
-0.15002,22249.463,3.9643,0.7301,0.0,0.0,2.9678,-0.59472
-0.15001,22609.464,3.9585,0.7451,,2.6366,3.0272,-0.59381
-0.15003,22969.463,3.953,0.7601,,,3.0865,-0.59307
-0.15002,23329.462,3.9477,0.7751,,,3.1458,-0.59223
-0.15003,23689.463,3.9427,0.7901,,,3.205,-0.59152
-0.15001,24049.462,3.938,0.8051,,,3.2641,-0.59074
-0.15002,24409.464,3.9334,0.82011,,3.288,3.3232,-0.59009
-0.15002,24769.462,3.9288,0.83511,,3.3929,3.3821,-0.5894
-0.15002,25129.462,3.9246,0.85011,0.0,0.0,3.441,-0.58877
-0.15001,25489.464,3.9208,0.86511,,0.0,3.4999,-0.58816
-0.15002,25849.463,3.917,0.88012,,,3.5587,-0.58763
-0.15003,26209.462,3.9131,0.89512,,,3.6174,-0.58708
-0.15002,26569.463,3.9096,0.91012,,,3.6761,-0.58652
-0.15002,26929.462,3.9062,0.92512,,0.0,3.7347,-0.58601
-0.15002,27289.464,3.9029,0.94012,0.0,0.0,3.7933,-0.58551
-0.15003,27649.464,3.8995,0.95513,0.0,0.0,3.8518,-0.58504
-0.15002,28009.463,3.8959,0.97013,0.0,,3.9103,-0.58446
-0.15001,28369.463,3.8924,0.98513,0.0,0.0,3.9687,-0.5839
-0.15002,28729.463,3.8889,1.0001,0.0,0.0,4.0271,-0.58341
-0.15003,29089.462,3.8854,1.0151,0.0,,4.0854,-0.58293
-0.15002,29449.463,3.8815,1.0301,0.0,,4.1437,-0.5823
-0.15003,29809.464,3.8774,1.0451,0.0,0.0,4.2018,-0.58173
-0.15002,30169.464,3.8729,1.0601,,,4.26,-0.58101
-0.15002,30529.463,3.868,1.0751,,3.2215,4.318,-0.58028
-0.15002,30889.462,3.8629,1.0901,,,4.376,-0.57951
-0.15002,31249.462,3.8573,1.1051,,,4.4339,-0.57867
-0.15001,31609.463,3.8512,1.1201,0.0,0.0,4.4918,-0.57772
-0.15002,31969.464,3.8444,1.1351,0.0,,4.5495,-0.57674
-0.15002,32329.464,3.8377,1.1502,,,4.6071,-0.57573
-0.15002,32689.462,3.8308,1.1652,0.0,0.0,4.6646,-0.5747
-0.15002,33049.464,3.8241,1.1802,0.0,0.0,4.7221,-0.57369
-0.15001,33409.464,3.818,1.1952,,2.3555,4.7794,-0.57274
-0.15003,33769.464,3.8119,1.2102,0.0,0.0,4.8366,-0.5719
-0.15002,34129.462,3.8059,1.2252,0.0,0.0,4.8938,-0.57096
-0.15002,34489.464,3.8002,1.2402,0.0,,4.9508,-0.57011
-0.15002,34849.462,3.795,1.2552,,0.0,5.0078,-0.56933
-0.15003,35209.464,3.7897,1.2702,,0.0,5.0647,-0.56857
-0.15001,35569.464,3.7844,1.2852,,0.0,5.1215,-0.5677
-0.15002,35929.464,3.7794,1.3002,,,5.1782,-0.56699
-0.15002,36289.463,3.7745,1.3152,,,5.2349,-0.56625
-0.15001,36649.465,3.7697,1.3302,,,5.2915,-0.56549
-0.15002,37009.462,3.7648,1.3452,,0.0,5.348,-0.5648
-0.15001,37369.464,3.76,1.3602,,0.0,5.4044,-0.56404
-0.15003,37729.462,3.7549,1.3752,,0.0,5.4608,-0.56335
-0.15002,38089.462,3.75,1.3902,0.0,0.0,5.5171,-0.56258
-0.15002,38449.462,3.7453,1.4052,0.0,0.0,5.5733,-0.56187
-0.15002,38809.462,3.7404,1.4202,0.0,0.0,5.6295,-0.56113
-0.15003,39169.462,3.7354,1.4352,0.0,0.0,5.6855,-0.56042
-0.15002,39529.463,3.7302,1.4502,0.0,0.0,5.7415,-0.5596
-0.15002,39889.463,3.7252,1.4652,0.0,0.0,5.7975,-0.55885
-0.15002,40249.462,3.7203,1.4802,0.0,0.0,5.8533,-0.55812
-0.15002,40609.463,3.7155,1.4952,0.0,,5.9091,-0.5574
-0.15002,40969.464,3.7106,1.5102,0.0,,5.9648,-0.55666
-0.15002,41329.463,3.7058,1.5252,0.0,,6.0204,-0.55594
-0.15003,41689.462,3.701,1.5402,,,6.076,-0.55526
-0.15002,42049.464,3.6961,1.5552,,,6.1315,-0.55449
-0.15001,42409.464,3.6916,1.5702,,0.0,6.1869,-0.55378
-0.15002,42769.463,3.6872,1.5852,,0.0,6.2422,-0.55315
-0.15004,43129.463,3.6828,1.6002,,,6.2975,-0.55257
-0.15002,43489.464,3.6784,1.6152,,3.4681,6.3527,-0.55183
-0.15003,43849.462,3.6742,1.6302,,0.0,6.4079,-0.55124
-0.15002,44209.464,3.6702,1.6452,,,6.463,-0.5506
-0.15002,44569.462,3.6663,1.6602,,,6.518,-0.55002
-0.15003,44929.462,3.6623,1.6752,0.0,,6.573,-0.54945
-0.15002,45289.462,3.6585,1.6902,0.0,,6.6279,-0.54885
-0.15002,45649.464,3.6549,1.7052,0.0,,6.6828,-0.54831
-0.15003,46009.465,3.6513,1.7202,0.0,,6.7376,-0.5478
-0.15002,46369.463,3.648,1.7352,0.0,,6.7923,-0.54727
-0.15002,46729.463,3.6445,1.7502,0.0,,6.847,-0.54675
-0.15003,47089.463,3.641,1.7652,,0.0,6.9017,-0.54626
-0.15002,47449.463,3.6377,1.7802,,,6.9563,-0.54573
-0.15002,47809.463,3.6344,1.7952,0.0,,7.0108,-0.54523
-0.15001,48169.464,3.6313,1.8102,,0.0,7.0653,-0.54473
-0.15002,48529.463,3.6281,1.8252,0.0,,7.1198,-0.54429
-0.15001,48889.462,3.6247,1.8402,0.0,,7.1742,-0.54374
-0.15003,49249.463,3.6215,1.8552,0.0,,7.2285,-0.54333
-0.15001,49609.462,3.6185,1.8703,0.0,4.6723,7.2828,-0.54281
-0.15002,49969.464,3.6153,1.8853,0.0,0.0,7.3371,-0.54237
-0.15003,50329.462,3.6121,1.9003,,0.0,7.3913,-0.54192
-0.15002,50689.463,3.6087,1.9153,,0.0,7.4455,-0.54138
-0.15001,51049.464,3.6055,1.9303,,,7.4996,-0.54086
-0.15002,51409.462,3.6021,1.9453,,0.0,7.5536,-0.54039
-0.15002,51769.463,3.5988,1.9603,,0.0,7.6077,-0.53989
-0.15003,52129.462,3.5954,1.9753,0.0,,7.6616,-0.53942
-0.15002,52489.464,3.5919,1.9903,,0.0,7.7155,-0.53886
-0.15003,52849.465,3.5881,2.0053,,4.1984,7.7694,-0.53832
-0.15002,53209.463,3.5844,2.0203,,0.0,7.8232,-0.53773
-0.15002,53569.462,3.5806,2.0353,0.0,0.0,7.8769,-0.53716
-0.15002,53929.463,3.5769,2.0503,0.0,0.0,7.9306,-0.53661
-0.15001,54289.463,3.573,2.0653,,3.8527,7.9843,-0.53599
-0.15004,54649.465,3.5689,2.0803,,0.0,8.0378,-0.53548
-0.15002,55009.465,3.5648,2.0953,,,8.0913,-0.53479
-0.15001,55369.463,3.5606,2.1103,0.0,0.0,8.1448,-0.53413
-0.15002,55729.462,3.5565,2.1253,0.0,0.0,8.1982,-0.53355
-0.15003,56089.462,3.5521,2.1403,0.0,,8.2515,-0.53292
-0.15002,56449.462,3.5476,2.1553,0.0,,8.3047,-0.53221
-0.15001,56809.462,3.5429,2.1703,,3.2691,8.3579,-0.53147
-0.15003,57169.462,3.5382,2.1853,,3.2238,8.411,-0.53084
-0.15002,57529.464,3.5334,2.2003,0.31116,0.0,8.4641,-0.53008
-0.15002,57889.462,3.5288,2.2153,0.0,,8.5171,-0.52939
-0.15002,58249.462,3.5241,2.2303,0.0,,8.57,-0.52869
-0.15002,58609.462,3.5192,2.2453,,,8.6228,-0.52795
-0.15001,58969.462,3.5144,2.2603,,0.0,8.6756,-0.5272
-0.15,59329.462,3.5096,2.2753,,0.0,8.7283,-0.52644
-0.15002,59689.462,3.5049,2.2903,,0.0,8.7809,-0.52581
-0.15002,60049.464,3.5,2.3053,0.0,0.0,8.8334,-0.52507
-0.15003,60409.463,3.4949,2.3203,0.0,,8.8859,-0.52434
-0.15002,60769.463,3.4897,2.3353,0.0,0.0,8.9383,-0.52352
-0.15002,61129.462,3.4844,2.3503,0.0,0.0,8.9906,-0.52273
-0.15003,61489.462,3.4789,2.3653,,0.0,9.0428,-0.52194
-0.15002,61849.462,3.4729,2.3803,0.37906,2.5903,9.095,-0.521
-0.15003,62209.465,3.467,2.3953,0.0,,9.147,-0.52015
-0.15002,62569.464,3.4611,2.4103,0.0,0.0,9.199,-0.51923
-0.15001,62929.463,3.4549,2.4253,0.0,,9.2509,-0.51827
-0.15002,63289.462,3.4483,2.4403,0.0,0.0,9.3026,-0.51731
-0.15001,63649.464,3.4418,2.4553,,,9.3543,-0.5163
-0.15002,64009.462,3.4355,2.4703,,0.0,9.4059,-0.51539
-0.15002,64369.463,3.4297,2.4853,0.0,,9.4574,-0.51452
-0.15001,64729.464,3.4247,2.5003,0.0,0.0,9.5088,-0.51374
-0.15003,65089.464,3.4202,2.5153,0.0,,9.5602,-0.51313
-0.15001,65449.463,3.4161,2.5303,0.0,0.0,9.6114,-0.51245
-0.15001,65809.463,3.4122,2.5453,0.0,,9.6627,-0.51186
-0.15002,66169.463,3.4084,2.5603,0.0,,9.7138,-0.51133
-0.15002,66529.462,3.4045,2.5753,0.0,,9.7649,-0.51074
-0.15001,66889.463,3.4002,2.5903,,0.0,9.816,-0.51006
-0.15002,67249.462,3.3959,2.6053,,0.0,9.8669,-0.50945
-0.15002,67609.463,3.3915,2.6203,0.0,0.0,9.9179,-0.50879
-0.15001,67969.463,3.3867,2.6354,0.0,,9.9687,-0.50804
-0.15002,68329.463,3.3814,2.6504,0.0,,10.019,-0.50728
-0.15002,68689.463,3.3754,2.6654,0.0,0.0,10.07,-0.50638
-0.15001,69049.463,3.3688,2.6804,0.0,,10.121,-0.50535
-0.15003,69409.462,3.3613,2.6954,,,10.171,-0.5043
-0.15002,69769.462,3.3524,2.7104,0.58165,1.6125,10.222,-0.50293
-0.15001,70129.462,3.3412,2.7254,,1.3251,10.272,-0.50121
-0.15001,70489.464,3.3274,2.7404,0.0,1.0321,10.322,-0.49914
-0.15002,70849.463,3.3108,2.7554,1.1237,0.85846,10.372,-0.49669
-0.15002,71209.464,3.2909,2.7704,1.3723,0.71665,10.421,-0.4937
-0.15002,71569.462,3.2669,2.7854,,0.57877,10.47,-0.4901
-0.15003,71929.463,3.2376,2.8004,,0.47695,10.519,-0.48574
-0.15002,72289.463,3.2029,2.8154,2.4227,0.4144,10.567,-0.4805
-0.15001,72649.462,3.163,2.8304,2.82,0.35869,10.615,-0.47448
-0.15001,73009.462,3.1162,2.8454,3.2415,0.3022,10.662,-0.46746
-0.15002,73369.463,3.0605,2.8604,3.9822,0.25262,10.709,-0.45914
-0.15002,73729.462,2.9913,2.8754,5.0964,0.19314,10.754,-0.44875
-0.15002,74089.462,2.8993,2.8904,7.0995,0.13911,10.798,-0.43495
-0.15002,74449.464,2.7154,2.9054,21.207,0.046029,10.841,-0.40736
-0.15048,74681.365,2.4999,2.915,20.512,0.048667,10.866,-0.37618