Folder: battery-analysis-project/Data/monotonic_segments (part 4)

File: Cycle 745_charge.csv
Current(A),Test_Time(s),Voltage(V),Charge_Capacity(Ah),dV/dQ(V/Ah),dQ/dV(Ah/V),Charge_Energy(Wh),Power(W)
0.14999,1156.42,4.2002,0.03924,0.0,0.0,0.16548,0.62999
0.14998,76689.948,3.1787,0.04749,3.4502,0.29931,0.14599,0.47674
0.14998,76989.948,3.2172,0.05998,2.9605,0.34017,0.18596,0.48252
0.14998,77289.948,3.2506,0.07248,,0.39418,0.22637,0.48752
0.14998,77589.949,3.2802,0.08497,,0.44252,0.26718,0.49196
0.14998,77889.949,3.3066,0.09747,2.0663,0.48856,0.30833,0.49592
0.14999,78189.95,3.3303,0.10996,,0.54438,0.3498,0.49951
0.14998,78489.948,3.3515,0.12246,0.0,0.60364,0.39155,0.50266
0.14998,78789.949,3.3698,0.13496,,0.71601,0.43355,0.5054
0.14998,79089.949,3.3834,0.14745,1.0614,1.035,0.47574,0.50744
0.14998,79389.949,3.3925,0.15995,,0.0,0.51808,0.50881
0.14998,79689.947,3.399,0.17244,0.0,1.9454,0.56051,0.50978
0.14997,79989.948,3.4041,0.18494,,2.3716,0.60302,0.51051
0.14998,80289.948,3.4087,0.19743,0.0,2.722,0.64558,0.51124
0.14998,80589.95,3.4128,0.20993,,,0.6882,0.51185
0.15,80889.948,3.4166,0.22243,0.0,0.0,0.73087,0.51249
0.14999,81189.948,3.4202,0.23492,,0.0,0.77359,0.513
0.14998,81489.949,3.4238,0.24742,,3.5003,0.81635,0.5135
0.14998,81789.948,3.4272,0.25991,0.0,,0.85916,0.51401
0.14998,82089.947,3.4304,0.27241,,,0.902,0.51449
0.14998,82389.949,3.4336,0.2849,,3.8455,0.94489,0.51497
0.14998,82689.95,3.4369,0.2974,0.0,,0.98782,0.51547
0.14999,82989.948,3.44,0.3099,,0.0,1.0308,0.51597
0.14998,83289.949,3.4433,0.32239,0.25654,,1.0738,0.51643
0.14998,83589.949,3.4466,0.33489,,0.0,1.1168,0.51692
0.14999,83889.948,3.4499,0.34738,0.0,0.0,1.1599,0.51745
0.14999,84189.949,3.4534,0.35988,0.268,3.665,1.2031,0.51798
0.14998,84489.949,3.4569,0.37237,,,1.2462,0.51847
0.14998,84789.949,3.4608,0.38487,0.0,,1.2895,0.51905
0.14998,85089.949,3.4647,0.39736,0.0,,1.3327,0.51964
0.14998,85389.949,3.4689,0.40986,,3.0773,1.376,0.52027
0.14998,85689.95,3.4732,0.42236,0.33335,,1.4194,0.52091
0.14999,85989.948,3.4779,0.43485,,0.0,1.4628,0.52165
0.14999,86289.948,3.4827,0.44735,0.0,0.0,1.5063,0.52237
0.14997,86589.95,3.4877,0.45984,0.0,0.0,1.5499,0.52305
0.14998,86889.95,3.4928,0.47234,,0.0,1.5935,0.52385
0.14999,87189.949,3.498,0.48483,0.0,0.0,1.6372,0.52467
0.14999,87489.95,3.5032,0.49733,0.41563,0.0,1.6809,0.52544
0.14998,87789.948,3.5084,0.50983,,0.0,1.7247,0.52619
0.14998,88089.948,3.5136,0.52232,0.41805,2.3924,1.7686,0.52697
0.14999,88389.949,3.5188,0.53482,,2.3879,1.8125,0.52778
0.14998,88689.95,3.5239,0.54731,0.4147,2.4368,1.8565,0.52851
0.14998,88989.948,3.529,0.55981,,2.4582,1.9006,0.52928
0.14998,89289.948,3.5339,0.57231,0.40166,2.5405,1.9447,0.53001
0.14998,89589.948,3.5387,0.5848,,2.5663,1.9889,0.53073
0.14998,89889.948,3.5436,0.5973,0.38769,2.5975,2.0332,0.53147
0.14998,90189.948,3.5484,0.60979,,,2.0775,0.53219
0.14999,90489.949,3.5531,0.62229,0.37939,0.0,2.1218,0.53293
0.14998,90789.949,3.5576,0.63478,,0.0,2.1663,0.53357
0.14998,91089.948,3.5621,0.64728,0.0,,2.2107,0.53424
0.14998,91389.948,3.5664,0.65978,,,2.2553,0.53489
0.14998,91689.949,3.5706,0.67227,0.0,0.0,2.2999,0.53552
0.14998,91989.948,3.5747,0.68477,0.0,,2.3445,0.53613
0.14998,92289.95,3.5787,0.69726,,3.0913,2.3892,0.53673
0.14998,92589.947,3.5827,0.70976,0.0,,2.4339,0.53733
0.14999,92889.95,3.5865,0.72225,0.0,,2.4787,0.53794
0.14998,93189.949,3.5902,0.73475,,0.0,2.5236,0.53846
0.14998,93489.948,3.5938,0.74724,,3.459,2.5685,0.539
0.14999,93789.95,3.5973,0.75974,0.0,,2.6134,0.53956
0.14999,94089.948,3.6006,0.77224,,,2.6583,0.54005
0.14998,94389.95,3.6039,0.78473,,3.7844,2.7034,0.54051
0.14998,94689.95,3.607,0.79723,0.0,,2.7484,0.54098
0.14998,94989.948,3.61,0.80972,,0.0,2.7935,0.54143
0.14998,95289.949,3.613,0.82222,0.24622,,2.8386,0.54188
0.14998,95589.949,3.6159,0.83471,,0.0,2.8838,0.54231
0.14998,95889.949,3.6187,0.84721,0.0,4.2838,2.929,0.54273
0.14998,96189.948,3.6217,0.8597,,,2.9742,0.54318
0.14998,96489.949,3.6245,0.8722,0.0,,3.0195,0.5436
0.14998,96789.948,3.6274,0.8847,,0.0,3.0648,0.54404
0.14998,97089.95,3.6301,0.89719,0.0,0.0,3.1102,0.54444
0.14998,97389.948,3.6329,0.90969,,,3.1555,0.54486
0.14998,97689.948,3.6356,0.92218,0.0,,3.201,0.54527
0.14998,97989.948,3.6383,0.93468,,0.0,3.2464,0.54567
0.14998,98289.948,3.6412,0.94717,0.0,0.0,3.2919,0.54611
0.14998,98589.948,3.6438,0.95967,,4.6198,3.3374,0.5465
0.14999,98889.949,3.6465,0.97217,0.0,,3.3829,0.54694
0.14998,99189.948,3.6492,0.98466,,,3.4285,0.54731
0.14998,99489.95,3.6519,0.99716,0.0,0.0,3.4741,0.54771
0.14998,99789.95,3.6547,1.0097,,,3.5198,0.54813
0.14998,100089.949,3.6574,1.0222,0.0,0.0,3.5655,0.54854
0.14998,100389.948,3.6601,1.0346,,0.0,3.6112,0.54894
0.14999,100689.948,3.663,1.0471,0.22198,,3.657,0.54941
0.14997,100989.948,3.666,1.0596,,,3.7028,0.54979
0.14998,101289.949,3.6689,1.0721,0.0,4.3403,3.7486,0.55026
0.14999,101589.949,3.6718,1.0846,,,3.7945,0.55073
0.14998,101889.948,3.6748,1.0971,0.0,,3.8404,0.55115
0.14998,102189.948,3.6779,1.1096,,0.0,3.8863,0.55161
0.14997,102489.95,3.681,1.1221,0.0,,3.9323,0.55204
0.14998,102789.949,3.6842,1.1346,,3.9434,3.9783,0.55256
0.14998,103089.95,3.6874,1.1471,0.0,,4.0244,0.55304
0.14998,103389.948,3.6908,1.1596,,,4.0705,0.55355
0.14998,103689.948,3.6941,1.1721,,3.6981,4.1166,0.55404
0.14998,103989.948,3.6977,1.1846,0.0,,4.1628,0.55458
0.14998,104289.948,3.7012,1.1971,,,4.209,0.55511
0.14997,104589.948,3.7048,1.2096,0.0,,4.2553,0.55561
0.14999,104889.95,3.7085,1.2221,,0.0,4.3016,0.55624
0.14998,105189.95,3.7123,1.2346,0.0,0.0,4.348,0.55677
0.14999,105489.95,3.7163,1.2471,0.0,,4.3944,0.55741
0.14998,105789.948,3.7202,1.2596,0.0,,4.4409,0.55796
0.14998,106089.949,3.7242,1.2721,,3.1398,4.4874,0.55856
0.14998,106389.948,3.7282,1.2846,0.0,,4.534,0.55916
0.14998,106689.95,3.7324,1.2971,,0.0,4.5806,0.55979
0.14999,106989.948,3.7365,1.3096,0.0,,4.6272,0.56044
0.14998,107289.949,3.7407,1.3221,,0.0,4.674,0.56103
0.14997,107589.949,3.745,1.3346,0.0,,4.7207,0.56164
0.14998,107889.949,3.7493,1.3471,,2.9101,4.7676,0.56232
0.14997,108189.949,3.7537,1.3596,0.34582,2.88,4.8145,0.56294
0.14997,108489.949,3.7579,1.3721,,,4.8614,0.56357
0.14999,108789.949,3.7623,1.3846,0.0,0.0,4.9084,0.56431
0.14998,109089.948,3.7666,1.3971,0.0,,4.9554,0.56491
0.14997,109389.95,3.7709,1.4096,,0.0,5.0025,0.56552
0.14998,109689.949,3.7752,1.4221,0.0,,5.0497,0.5662
0.14997,109989.949,3.7794,1.4346,,,5.0969,0.5668
0.14998,110289.947,3.7837,1.4471,0.3409,2.9483,5.1441,0.56748
0.14998,110589.949,3.7879,1.4595,,,5.1915,0.56811
0.14998,110889.948,3.7921,1.472,0.0,0.0,5.2388,0.56874
0.14998,111189.949,3.7963,1.4845,,,5.2862,0.56937
0.14999,111489.95,3.8004,1.497,0.0,0.0,5.3337,0.57002
0.14999,111789.95,3.8045,1.5095,,,5.3812,0.57064
0.14999,112089.947,3.8087,1.522,0.0,3.0424,5.4288,0.57127
0.14998,112389.949,3.8128,1.5345,,,5.4764,0.57184
0.14998,112689.948,3.8169,1.547,0.0,0.0,5.5241,0.57246
0.14999,112989.949,3.8211,1.5595,,0.0,5.5718,0.57313
0.14998,113289.949,3.8253,1.572,0.0,,5.6196,0.57372
0.14998,113589.948,3.8295,1.5845,,3.0125,5.6674,0.57435
0.14999,113889.949,3.8336,1.597,0.33013,,5.7153,0.575
0.14998,114189.948,3.8377,1.6095,,0.0,5.7632,0.57558
0.14999,114489.949,3.8419,1.622,0.0,,5.8112,0.57625
0.14998,114789.948,3.846,1.6345,,0.0,5.8592,0.57682
0.14999,115089.949,3.8501,1.647,0.0,,5.9073,0.57748
0.14999,115389.949,3.8543,1.6595,,3.0197,5.9554,0.57811
0.14998,115689.948,3.8585,1.672,0.0,,6.0036,0.5787
0.14999,115989.949,3.8625,1.6845,,0.0,6.0519,0.57934
0.14999,116289.948,3.8667,1.697,0.0,,6.1002,0.57997
0.14999,116589.949,3.8709,1.7095,,0.0,6.1485,0.5806
0.14998,116889.948,3.8751,1.722,0.0,,6.1969,0.58119
0.14999,117189.949,3.8793,1.7345,,2.9649,6.2454,0.58186
0.14997,117489.948,3.8835,1.747,0.33583,,6.2939,0.58241
0.14999,117789.95,3.8876,1.7595,,0.0,6.3424,0.5831
0.14998,118089.949,3.8918,1.772,0.0,,6.391,0.58369
0.14998,118389.949,3.8959,1.7844,,0.0,6.4397,0.58431
0.14997,118689.948,3.8999,1.7969,0.0,,6.4884,0.58487
0.14998,118989.95,3.9037,1.8094,0.31824,3.2029,6.5372,0.58548
0.14998,119289.948,3.9074,1.8219,,,6.586,0.58603
0.14998,119589.95,3.9109,1.8344,0.0,,6.6348,0.58656
0.14997,119889.95,3.9143,1.8469,0.0,,6.6837,0.58703
0.14998,120189.948,3.9176,1.8594,0.0,,6.7327,0.58756
0.14998,120489.948,3.9208,1.8719,,,6.7817,0.58804
0.14999,120789.949,3.9239,1.8844,,4.097,6.8307,0.58855
0.14998,121089.948,3.9269,1.8969,0.0,,6.8797,0.58896
0.14999,121389.951,3.9299,1.9094,,,6.9288,0.58945
0.14998,121689.949,3.933,1.9219,0.0,0.0,6.978,0.58987
0.15,121989.949,3.9362,1.9344,0.0,,7.0271,0.59043
0.14998,122289.948,3.9394,1.9469,,3.8843,7.0764,0.59083
0.14999,122589.948,3.9428,1.9594,0.0,,7.1256,0.59138
0.14999,122889.949,3.9464,1.9719,0.0,,7.1749,0.59192
0.14998,123189.948,3.9501,1.9844,,,7.2242,0.59244
0.14998,123489.949,3.9538,1.9969,0.29333,3.3021,7.2736,0.59299
0.14999,123789.949,3.9578,2.0094,,,7.3231,0.59363
0.14998,124089.948,3.962,2.0219,0.0,,7.3726,0.59422
0.14999,124389.949,3.9663,2.0344,,0.0,7.4221,0.59491
0.14998,124689.948,3.9708,2.0469,0.0,0.0,7.4717,0.59554
0.14998,124989.947,3.9754,2.0594,0.0,,7.5213,0.59623
0.14998,125289.949,3.9802,2.0719,,,7.5711,0.59695
0.14998,125589.948,3.9852,2.0844,0.0,,7.6208,0.5977
0.14998,125889.948,3.9903,2.0969,,,7.6707,0.59847
0.14998,126189.948,3.9955,2.1094,0.0,,7.7206,0.59925
0.14998,126489.949,4.0007,2.1219,,,7.7705,0.60002
0.14998,126789.949,4.0061,2.1344,0.0,0.0,7.8206,0.60083
0.14998,127089.948,4.0114,2.1469,,0.0,7.8707,0.60163
0.14999,127389.95,4.0169,2.1594,,0.0,7.9208,0.60249
0.15002,127689.949,4.0225,2.1719,0.0,,7.9711,0.60346
0.15003,127989.948,4.0278,2.1844,0.0,,8.0214,0.60429
0.15002,128289.949,4.0331,2.1969,0.4289,0.0,8.0718,0.60505
0.15001,128589.951,4.0384,2.2094,,0.0,8.1222,0.6058
0.15002,128889.948,4.0434,2.2219,0.4152,0.0,8.1727,0.60659
0.15003,129189.948,4.0484,2.2344,,0.0,8.2233,0.60738
0.15002,129489.949,4.0533,2.2469,0.39379,0.0,8.2739,0.60808
0.15001,129789.949,4.058,2.2594,,0.0,8.3246,0.60874
0.15002,130089.949,4.0626,2.2719,0.0,0.0,8.3754,0.60947
0.15001,130389.948,4.0667,2.2844,0.0,,8.4262,0.61005
0.15002,130569.949,4.0692,2.2919,,3.0377,8.4567,0.61046

File: Cycle 745_discharge.csv
Current(A),Test_Time(s),Voltage(V),Discharge_Capacity(Ah),dV/dQ(V/Ah),dQ/dV(Ah/V),Discharge_Energy(Wh),Power(W)
-0.14999,13096.735,4.0668,0.34739,0.0,0.0,1.4217,-0.60998
-0.14999,13456.737,4.0651,0.36239,0.0,0.0,1.4826,-0.60972
-0.14999,13816.736,4.0627,0.37738,0.0,,1.5436,-0.60936
-0.15,14176.737,4.0596,0.39238,0.0,,1.6045,-0.60894
-0.15,14536.734,4.0563,0.40737,,0.0,1.6653,-0.60845
-0.14999,14896.736,4.0528,0.42237,,4.1728,1.7261,-0.60788
-0.14999,15256.735,4.0488,0.43737,,0.0,1.7869,-0.60728
-0.14999,15616.734,4.0445,0.45236,,,1.8476,-0.60663
-0.14999,15976.737,4.04,0.46736,,0.0,1.9082,-0.60596
-0.14999,16336.737,4.0351,0.48235,,,1.9687,-0.60522
-0.14999,16696.735,4.0301,0.49735,,,2.0292,-0.60447
-0.14998,17056.735,4.0253,0.51234,,,2.0896,-0.60371
-0.14999,17416.737,4.02,0.52734,,,2.1499,-0.60296
-0.15,17776.737,4.0143,0.54233,0.0,,2.2102,-0.60215
-0.14999,18136.736,4.0087,0.55733,0.0,0.0,2.2703,-0.60126
-0.15,18496.735,4.0029,0.57233,,2.5376,2.3304,-0.60044
-0.14999,18856.737,3.9972,0.58732,,2.6169,2.3904,-0.59954
-0.15001,19216.736,3.9914,0.60232,,,2.4503,-0.59875
-0.15,19576.736,3.9854,0.61731,0.0,0.0,2.5101,-0.59781
-0.14998,19936.735,3.9793,0.63231,0.0,,2.5698,-0.59682
-0.15,20296.736,3.9734,0.6473,0.0,0.0,2.6294,-0.59601
-0.14999,20656.737,3.9679,0.6623,0.38644,2.6138,2.689,-0.59515
-0.14998,21016.735,3.9622,0.67729,0.0,2.6395,2.7484,-0.59425
-0.15,21376.737,3.9565,0.69229,,,2.8078,-0.59348
-0.15,21736.735,3.9512,0.70729,,,2.8671,-0.59268
-0.14999,22096.735,3.9462,0.72228,0.0,,2.9263,-0.59189
-0.14999,22456.736,3.9412,0.73728,0.0,0.0,2.9854,-0.59114
-0.14999,22816.735,3.9365,0.75227,0.0,,3.0445,-0.59044
-0.14999,23176.736,3.9317,0.76727,0.0,,3.1035,-0.58972
-0.14998,23536.735,3.9272,0.78226,,3.3613,3.1624,-0.589
-0.15,23896.735,3.9229,0.79726,,0.0,3.2213,-0.58844
-0.14998,24256.735,3.9189,0.81225,,,3.2801,-0.58776
-0.15,24616.737,3.9151,0.82725,0.0,0.0,3.3388,-0.58727
-0.14999,24976.735,3.9112,0.84225,0.0,0.0,3.3975,-0.58664
-0.14999,25336.736,3.9074,0.85724,0.24988,3.9749,3.4561,-0.58607
-0.15,25696.736,3.9036,0.87224,0.0,0.0,3.5147,-0.58554
-0.14999,26056.735,3.8997,0.88723,0.0,0.0,3.5732,-0.58492
-0.14999,26416.735,3.8957,0.90223,,,3.6316,-0.58432
-0.14998,26776.737,3.8917,0.91722,,,3.69,-0.58368
-0.15,27136.734,3.8873,0.93222,,3.4633,3.7483,-0.5831
-0.14999,27496.735,3.8825,0.94722,,3.2214,3.8066,-0.58234
-0.15,27856.734,3.8775,0.96222,0.32013,2.9868,3.8648,-0.58163
-0.14999,28216.735,3.8721,0.97721,0.0,2.8153,3.9229,-0.58078
-0.15,28576.737,3.8669,0.99221,,2.7793,3.9809,-0.58004
-0.14999,28936.735,3.8614,1.0072,,,4.0389,-0.57917
-0.14999,29296.735,3.8557,1.0222,0.0,0.0,4.0968,-0.57832
-0.14999,29656.735,3.8498,1.0372,0.0,0.0,4.1545,-0.57743
-0.15,30016.735,3.8442,1.0522,,,4.2122,-0.57663
-0.14998,30376.736,3.8386,1.0672,,0.0,4.2698,-0.57571
-0.14999,30736.736,3.8332,1.0822,,0.0,4.3274,-0.57494
-0.14999,31096.735,3.8278,1.0972,0.36273,,4.3848,-0.57413
-0.14999,31456.736,3.8223,1.1122,0.0,2.7921,4.4422,-0.57331
-0.14999,31816.737,3.817,1.1272,,2.8079,4.4995,-0.57251
-0.14999,32176.735,3.812,1.1422,,2.9023,4.5567,-0.57176
-0.14998,32536.736,3.8066,1.1572,,,4.6138,-0.57091
-0.15,32896.737,3.8015,1.1722,,,4.6709,-0.57023
-0.15,33256.736,3.7966,1.1872,,,4.7278,-0.56949
-0.15,33616.735,3.7915,1.2022,,,4.7847,-0.56873
-0.15,33976.736,3.7864,1.2172,,,4.8416,-0.56796
-0.15,34336.736,3.7813,1.2322,,,4.8983,-0.5672
-0.14999,34696.736,3.7764,1.2472,,,4.955,-0.56642
-0.14999,35056.736,3.7716,1.2622,,,5.0116,-0.5657
-0.14999,35416.736,3.7666,1.2772,,,5.0681,-0.56495
-0.15,35776.736,3.7615,1.2922,,,5.1246,-0.56423
-0.14999,36136.736,3.7564,1.3072,,,5.181,-0.56342
-0.15,36496.737,3.7514,1.3222,,,5.2373,-0.56271
-0.15,36856.735,3.7465,1.3372,,,5.2935,-0.56198
-0.15,37216.734,3.7414,1.3522,,,5.3496,-0.56121
-0.15,37576.736,3.7361,1.3672,0.0,,5.4057,-0.56042
-0.14999,37936.736,3.731,1.3821,0.0,,5.4617,-0.55961
-0.14999,38296.734,3.726,1.3971,0.0,,5.5176,-0.55886
-0.14999,38656.735,3.721,1.4121,0.0,,5.5735,-0.55811
-0.15,39016.736,3.7157,1.4271,0.0,,5.6292,-0.55736
-0.15001,39376.735,3.7107,1.4421,0.0,,5.6849,-0.55664
-0.15,39736.735,3.7059,1.4571,0.0,,5.7405,-0.55589
-0.15,40096.736,3.7011,1.4721,0.0,,5.7961,-0.55517
-0.15,40456.737,3.6963,1.4871,0.0,,5.8515,-0.55445
-0.14999,40816.736,3.6915,1.5021,0.0,,5.9069,-0.55369
-0.14999,41176.735,3.6868,1.5171,,3.2764,5.9622,-0.55298
-0.14999,41536.735,3.6826,1.5321,,0.0,6.0175,-0.55235
-0.15,41896.735,3.6782,1.5471,,,6.0727,-0.55173
-0.15,42256.734,3.6737,1.5621,,,6.1278,-0.55106
-0.14998,42616.735,3.6696,1.5771,,,6.1829,-0.55037
-0.14999,42976.736,3.6656,1.5921,,0.0,6.2379,-0.5498
-0.15,43336.735,3.6618,1.6071,,,6.2928,-0.54927
-0.14999,43696.736,3.6579,1.6221,0.26193,,6.3477,-0.54865
-0.14998,44056.735,3.654,1.6371,0.0,,6.4025,-0.54803
-0.14998,44416.736,3.6503,1.6521,0.0,,6.4573,-0.54747
-0.14999,44776.736,3.6467,1.6671,,,6.512,-0.54697
-0.14999,45136.736,3.6433,1.6821,,,6.5666,-0.54646
-0.14999,45496.735,3.6397,1.6971,,0.0,6.6213,-0.54592
-0.14999,45856.736,3.6361,1.7121,,0.0,6.6758,-0.54538
-0.15,46216.735,3.6327,1.7271,0.0,0.0,6.7303,-0.54491
-0.14999,46576.735,3.6292,1.7421,0.0,,6.7848,-0.54434
-0.14999,46936.736,3.6256,1.7571,,0.0,6.8392,-0.5438
-0.14999,47296.736,3.6221,1.7721,,4.273,6.8935,-0.54328
-0.14999,47656.735,3.6188,1.7871,,0.0,6.9478,-0.54278
-0.15,48016.737,3.6152,1.8021,0.0,,7.0021,-0.54228
-0.15,48376.734,3.6115,1.8171,0.0,,7.0563,-0.54173
-0.14999,48736.735,3.6079,1.8321,0.0,,7.1104,-0.54115
-0.14999,49096.736,3.6045,1.847,,0.0,7.1645,-0.54064
-0.15,49456.735,3.6008,1.862,,0.0,7.2185,-0.54012
-0.15,49816.735,3.597,1.877,,4.0691,7.2725,-0.53955
-0.14999,50176.736,3.5932,1.892,,0.0,7.3264,-0.53894
-0.15,50536.736,3.5896,1.907,,0.0,7.3803,-0.53844
-0.15,50896.736,3.5857,1.922,,0.0,7.4341,-0.53786
-0.14998,51256.736,3.5816,1.937,,,7.4879,-0.53717
-0.14999,51616.736,3.5776,1.952,0.26499,,7.5416,-0.5366
-0.14999,51976.734,3.5735,1.967,0.0,,7.5952,-0.53599
-0.14999,52336.735,3.5695,1.982,0.0,0.0,7.6487,-0.53539
-0.15001,52696.736,3.5652,1.997,,,7.7023,-0.53482
-0.14999,53056.736,3.5607,2.012,,0.0,7.7557,-0.53407
-0.14999,53416.734,3.5562,2.027,0.0,,7.8091,-0.53339
-0.15,53776.735,3.5518,2.042,,3.3333,7.8624,-0.53277
-0.15,54136.736,3.5473,2.057,0.30197,3.2541,7.9156,-0.5321
-0.15,54496.735,3.5427,2.072,0.0,0.0,7.9688,-0.53141
-0.14999,54856.735,3.538,2.087,0.0,,8.0219,-0.53066
-0.14999,55216.734,3.5332,2.102,,,8.0749,-0.52994
-0.15,55576.736,3.5283,2.117,,0.0,8.1279,-0.52925
-0.14999,55936.735,3.5236,2.132,,0.0,8.1807,-0.5285
-0.14999,56296.736,3.5188,2.147,,0.0,8.2335,-0.52778
-0.15,56656.737,3.5138,2.162,0.0,0.0,8.2863,-0.52707
-0.15001,57016.737,3.5086,2.177,0.0,0.0,8.3389,-0.52633
-0.15001,57376.736,3.5033,2.192,,0.0,8.3915,-0.52553
-0.14999,57736.734,3.4981,2.207,,0.0,8.444,-0.52468
-0.14999,58096.736,3.4927,2.222,,,8.4965,-0.52387
-0.14998,58456.735,3.4871,2.237,0.36938,2.6535,8.5488,-0.523
-0.14999,58816.736,3.4812,2.252,0.0,2.6393,8.6011,-0.52215
-0.15,59176.735,3.4754,2.267,0.0,,8.6532,-0.52131
-0.15,59536.736,3.4694,2.282,0.0,0.0,8.7053,-0.52041
-0.15,59896.735,3.4634,2.297,0.0,,8.7573,-0.51951
-0.14999,60256.734,3.4572,2.312,0.4104,0.0,8.8092,-0.51855
-0.14999,60616.736,3.451,2.327,0.0,,8.861,-0.51762
-0.14998,60976.735,3.445,2.342,0.0,0.0,8.9127,-0.51668
-0.14999,61336.736,3.4393,2.357,0.0,0.0,8.9643,-0.51586
-0.15,61696.736,3.4341,2.372,0.0,,9.0159,-0.51512
-0.15,62056.735,3.4294,2.387,0.0,,9.0674,-0.51441
-0.15,62416.736,3.4249,2.402,0.0,0.0,9.1188,-0.51374
-0.15,62776.735,3.4205,2.417,,0.0,9.1701,-0.51308
-0.14998,63136.737,3.4161,2.432,0.0,,9.2214,-0.51235
-0.15,63496.736,3.4117,2.447,0.0,3.4718,9.2726,-0.51176
-0.14999,63856.736,3.4072,2.462,0.29364,0.0,9.3237,-0.51105
-0.14999,64216.736,3.4027,2.477,0.0,,9.3748,-0.51037
-0.15,64576.734,3.3979,2.492,0.0,,9.4258,-0.50969
-0.14999,64936.735,3.3926,2.507,,,9.4767,-0.50886
-0.14999,65296.737,3.3869,2.522,0.36079,2.612,9.5275,-0.508
-0.14999,65656.736,3.3803,2.537,0.0,,9.5783,-0.50701
-0.15,66016.735,3.3731,2.552,,,9.6289,-0.50597
-0.14999,66376.737,3.3644,2.567,0.0,,9.6795,-0.50463
-0.15,66736.735,3.3542,2.582,,,9.7298,-0.50313
-0.14999,67096.735,3.342,2.597,0.0,0.0,9.7801,-0.50127
-0.15001,67456.736,3.3276,2.612,0.98768,,9.8301,-0.49917
-0.14999,67816.737,3.3105,2.627,0.0,0.8292,9.8799,-0.49654
-0.14999,68176.735,3.2901,2.642,0.0,0.69992,9.9294,-0.49348
-0.15,68536.736,3.266,2.657,1.651,0.58645,9.9785,-0.4899
-0.14999,68896.736,3.2386,2.672,,0.5256,10.027,-0.48576
-0.14999,69256.736,3.2073,2.687,2.1997,0.45968,10.076,-0.48106
-0.14999,69616.736,3.1708,2.7019,,0.38543,10.123,-0.47559
-0.14999,69976.736,3.1284,2.7169,,0.33259,10.171,-0.46923
-0.15,70336.736,3.0782,2.7319,,0.27701,10.217,-0.46173
-0.14999,70696.734,3.018,2.7469,4.2342,0.22842,10.263,-0.45267
-0.15,71056.734,2.9424,2.7619,5.5477,0.17673,10.308,-0.44136
-0.14999,71416.735,2.8346,2.7769,9.3298,0.1058,10.351,-0.42516
-0.14999,71776.735,2.6193,2.7919,16.634,0.05927,10.392,-0.39287
-0.15,71949.862,2.5,2.7991,16.171,0.061643,10.411,-0.375