Folder: battery-analysis-project/Data/monotonic_segments

Note: README.md
# ğŸ”‹ battery-analysis-project  
ğŸ‘¤ **Author**: Jimei (May) Cui  
ğŸ”— [LinkedIn](https://www.linkedin.com/in/jimei-cui/) | [GitHub](https://github.com/May-Cui/)  

ğŸ‘¥ **Supervisors**: Kawa Manmi, Ferran Brosa Planella  

---

## ğŸ“– Project Overview  
This repository contains the code, documentation, and outputs from my **Faraday Undergraduate Summer Experience (FUSE) 2025** internship at the University of Warwick.  

Implemented methods:  
- **dQ/dV** â€” Differential Capacity Analysis  
- **dV/dQ** â€” Differential Voltage Analysis  
- **DCS** â€” Differential Coulometry Spectroscopy  
- **dP/dE** â€” Differential Powerâ€“Energy Analysis  
- **LEAN** â€” Linear Energy Analysis of Noise (extension of DCS, used in final comparisons)  

---

## ğŸ¯ Outputs  

### ğŸ”¹ Poster (Main Deliverable)  
- [Poster PDF](Docs/poster_final.pdf) â€” official version  
- ![Poster preview](Docs/poster_final.jpg)

### ğŸ”¹ Additional Outputs  
- **Figures** â€” Poster-ready plots in `Plots/` (`.png`)  
- **Analysis Pipelines** â€” Reproducible implementations of dQ/dV, dV/dQ, dP/dE, DCS, and LEAN (`Notebooks/`)  
- **Documentation** â€” Weekly log (`Docs/progress-log.md`), glossary (`Docs/battery-terminology.md`), and method notes (not included in this repo)  

---

## ğŸ§­ Methodological Notes  

1. **From DCS to LEAN**  
   - Began with **Differential Coulometry Spectroscopy (DCS)** following BioLogic [Application Note #57](https://www.biologic.net/documents/dcs-battery-application-note-57/).  
   - Literature review introduced the **LEAN method** (Feng et al., 2020, [link](https://www.sciencedirect.com/science/article/pii/S2590116820300084)), an *extended version* of DCS.  
   - Final comparative study focused on **LEAN, dQ/dV, dV/dQ, and dP/dE**, as LEAN provided more stable cross-cell outputs.  

2. **Interpolation vs. Downsampling**  
   - Both strategies were tested:  
     - **Interpolation** useful for sparse/uneven data but may â€œcreateâ€ points.  
     - **Downsampling** preserves fidelity and is preferred in modern practice.  
   - Poster results used the **downsampling + LEAN route**.  

   Reproducibility:  
   - `40_pipeline_all_methods.ipynb` â†’ **main notebook** containing the final unified pipeline (downsampling + LEAN, used in poster).  
   - `30_pipeline_interpolation_dcs.ipynb` â†’ interpolation + DCS pipeline (kept for exploration).  
   - Earlier notebooks are exploratory and interpolation-based only.  

---

## ğŸ“‚ Project Folder Structure  

- **Data/**  
  - `raw_data/` â€” Original downloaded datasets (not uploaded)  
  - `processed_data/` â€” Downsampled / smoothed outputs  
  - `interp_data/` â€” Interpolation-based outputs  
  - `monotonic_segments/` â€” Extracted monotonic Qâ€“V segments  
  - `processed_cache/` â€” Cached CSVs  

- **Notebooks/**  
  - `10_extract_qv_from_raw_216.ipynb`  
  - `20_dqdv_dvdq_borealis.ipynb`  
  - `30_pipeline_interpolation_dcs.ipynb`  
  - `40_pipeline_all_methods.ipynb` (**key notebook â€”

File: Cycle 72_charge.csv
Current(A),Test_Time(s),Voltage(V),Charge_Capacity(Ah),dV/dQ(V/Ah),dQ/dV(Ah/V),Charge_Energy(Wh),Power(W)
0.14999,1043.66,4.2001,0.021738,0.0,0.0,0.091301,0.62997
0.14999,80531.5,3.0781,0.032498,4.7219,0.21959,0.09693,0.46168
0.14999,80891.5,3.1383,0.047497,3.744,0.27469,0.14356,0.47071
0.14999,81251.5,3.1871,0.062496,3.0976,0.32485,0.19101,0.47803
0.14999,81611.507,3.2285,0.077494,2.6628,0.385,0.23913,0.48424
0.14998,81971.5,3.2639,0.092493,2.2818,0.44076,0.28783,0.48952
0.14999,82331.5,3.2953,0.10749,2.0258,0.49791,0.33702,0.49426
0.14999,82691.5,3.3232,0.12249,1.7894,0.57189,0.38666,0.49845
0.14999,83051.5,3.3474,0.13749,,,0.43669,0.50208
0.14999,83411.5,3.3668,0.15249,,,0.48705,0.50499
0.14999,83771.5,3.3792,0.16749,,,0.53765,0.50685
0.14998,84131.5,3.3862,0.18249,,,0.58839,0.50786
0.14999,84491.507,3.3915,0.19748,,0.0,0.63922,0.50869
0.14999,84851.5,3.3966,0.21248,,0.0,0.69013,0.50946
0.14999,85211.506,3.4012,0.22748,,0.0,0.74111,0.51015
0.14998,85571.5,3.4056,0.24248,0.0,0.0,0.79216,0.51077
0.14998,85931.5,3.4096,0.25748,0.0,,0.84327,0.51137
0.14999,86291.5,3.4137,0.27248,0.0,,0.89444,0.51202
0.14999,86651.5,3.4176,0.28748,0.0,3.8443,0.94567,0.51261
0.14999,87011.5,3.4215,0.30248,0.0,,0.99696,0.51319
0.14999,87371.5,3.4253,0.31747,0.0,0.0,1.0483,0.51376
0.14998,87731.5,3.429,0.33247,0.0,0.0,1.0997,0.51428
0.14998,88091.5,3.4329,0.34747,,3.8227,1.1512,0.51487
0.14999,88451.5,3.4371,0.36247,,0.0,1.2027,0.51553
0.14999,88811.5,3.4416,0.37747,,,1.2543,0.51621
0.14998,89171.5,3.4463,0.39247,,0.0,1.3059,0.51688
0.14999,89531.509,3.4511,0.40747,,0.0,1.3577,0.51763
0.14998,89891.5,3.4565,0.42247,0.0,0.0,1.4095,0.51841
0.14998,90251.5,3.4621,0.43746,0.0,0.0,1.4613,0.51925
0.14999,90611.5,3.468,0.45246,,2.561,1.5133,0.52017
0.15,90971.5,3.4741,0.46746,,,1.5654,0.52112
0.14998,91331.5,3.4801,0.48246,,0.0,1.6175,0.52195
0.14999,91691.5,3.486,0.49746,,,1.6698,0.52287
0.14998,92051.5,3.4917,0.51246,,0.0,1.7221,0.52369
0.14999,92411.5,3.4976,0.52746,,2.5492,1.7745,0.52461
0.14998,92771.5,3.5037,0.54246,,,1.827,0.52548
0.14998,93131.5,3.5102,0.55745,,0.0,1.8796,0.52646
0.14998,93491.5,3.5162,0.57245,,,1.9323,0.52736
0.14997,93851.5,3.5217,0.58745,,0.0,1.9851,0.52815
0.14999,94211.5,3.5267,0.60245,,0.0,2.0379,0.52897
0.14999,94571.5,3.5319,0.61745,,0.0,2.0909,0.52975
0.14999,94931.5,3.5374,0.63245,,,2.1439,0.53057
0.14999,95291.5,3.5436,0.64745,,2.5238,2.197,0.5315
0.14998,95651.506,3.5497,0.66244,,,2.2502,0.53238
0.14998,96011.506,3.5558,0.67744,,,2.3035,0.5333
0.14999,96371.5,3.5611,0.69244,,,2.3569,0.53413
0.14999,96731.5,3.5657,0.70744,0.0,0.0,2.4103,0.53482
0.14998,97091.5,3.5698,0.72244,0.0,,2.4638,0.5354
0.14998,97451.508,3.5736,0.73744,0.0,,2.5174,0.53597
0.14998,97811.5,3.5773,0.75244,0.0,,2.571,0.53652
0.14999,98171.507,3.581,0.76743,,,2.6247,0.53711
0.14998,98531.508,3.5849,0.78243,0.0,,2.6784,0.53766
0.14999,98891.5,3.5886,0.79743,0.0,,2.7322,0.53825
0.14999,99251.5,3.5921,0.81243,0.0,,2.7861,0.53878
0.14999,99611.508,3.5954,0.82743,,0.0,2.84,0.53927
0.14999,99971.5,3.5986,0.84243,,,2.8939,0.53975
0.14998,100332,3.6019,0.85742,,,2.9479,0.54021
0.14998,100692,3.6051,0.87242,,0.0,3.002,0.54069
0.14999,101052,3.608,0.88742,,4.8228,3.0561,0.54116
0.14998,101412,3.6111,0.90242,,0.0,3.1102,0.54159
0.14998,101772,3.6141,0.91742,,0.0,3.1644,0.54204
0.14999,102132,3.6171,0.93242,,0.0,3.2186,0.54253
0.14998,102492,3.6203,0.94742,,0.0,3.2729,0.54297
0.14999,102852,3.6233,0.96241,,4.9711,3.3272,0.54346
0.14999,103212,3.6262,0.97741,,0.0,3.3816,0.54389
0.14998,103572,3.6291,0.99241,,0.0,3.436,0.54429
0.14997,103932,3.6321,1.0074,,0.0,3.4904,0.54471
0.14998,104292,3.6352,1.0224,,0.0,3.5449,0.54521
0.14998,104652,3.6381,1.0374,,5.0178,3.5995,0.54564
0.14998,105012,3.641,1.0524,,0.0,3.6541,0.54608
0.14998,105371.507,3.644,1.0674,,0.0,3.7087,0.54653
0.14998,105732,3.6471,1.0824,,0.0,3.7634,0.54699
0.14998,106092,3.6503,1.0974,,0.0,3.8181,0.54747
0.14997,106452,3.6533,1.1124,,4.888,3.8729,0.54789
0.14998,106812,3.6563,1.1274,,0.0,3.9277,0.54837
0.14999,107172,3.6595,1.1424,,,3.9826,0.54889
0.14999,107532,3.6628,1.1574,0.21066,4.6777,4.0375,0.54938
0.14999,107892,3.6661,1.1724,0.0,,4.0924,0.54988
0.14999,108252,3.6695,1.1874,0.0,0.0,4.1474,0.55039
0.14999,108612,3.6729,1.2024,0.22207,4.4388,4.2025,0.5509
0.14999,108972,3.6762,1.2174,0.0,0.0,4.2576,0.55139
0.14998,109332,3.6798,1.2324,0.0,,4.3128,0.5519
0.14999,109692,3.6834,1.2474,,,4.368,0.55247
0.14997,110052,3.6874,1.2624,,,4.4233,0.553
0.14999,110412,3.6912,1.2774,,,4.4786,0.55364
0.14999,110772,3.6951,1.2924,0.0,,4.534,0.55423
0.14999,111132,3.6992,1.3074,0.0,0.0,4.5894,0.55484
0.14999,111492,3.7035,1.3224,,3.626,4.645,0.55549
0.14998,111852,3.7077,1.3374,,0.0,4.7005,0.55608
0.14998,112212,3.7121,1.3524,,,4.7562,0.55674
0.14999,112572,3.7165,1.3674,,0.0,4.8119,0.55744
0.14999,112932,3.7211,1.3824,,0.0,4.8677,0.55813
0.14999,113292,3.7259,1.3974,0.0,,4.9235,0.55885
0.14998,113652,3.7307,1.4124,0.0,,4.9794,0.55953
0.14998,114012,3.7354,1.4274,,,5.0354,0.56024
0.14998,114372,3.7403,1.4424,,,5.0915,0.56097
0.14998,114732,3.7453,1.4574,,,5.1476,0.56172
0.14999,115092,3.7504,1.4724,,0.0,5.2038,0.56252
0.14999,115451.506,3.7554,1.4874,,,5.2601,0.56327
0.14998,115811.506,3.7602,1.5024,,0.0,5.3165,0.56395
0.14998,116172,3.7652,1.5174,,0.0,5.3729,0.5647
0.14998,116532,3.7703,1.5324,,0.0,5.4294,0.56547
0.14999,116891.507,3.7754,1.5474,,0.0,5.486,0.56627
0.14998,117252,3.7803,1.5624,,0.0,5.5427,0.56697
0.14998,117612,3.7851,1.5774,,0.0,5.5994,0.56769
0.14999,117972,3.79,1.5923,,0.0,5.6562,0.56846
0.14998,118332,3.7952,1.6073,,0.0,5.7131,0.5692
0.14998,118692,3.8001,1.6223,,0.0,5.77,0.56994
0.14998,119052,3.8052,1.6373,,0.0,5.8271,0.5707
0.14997,119412,3.8101,1.6523,,0.0,5.8842,0.5714
0.14998,119772,3.8153,1.6673,,0.0,5.9414,0.57222
0.14999,120132,3.8207,1.6823,,,5.9986,0.57307
0.14998,120491.508,3.8265,1.6973,0.0,,6.056,0.5739
0.14998,120852,3.8325,1.7123,0.39314,0.0,6.1134,0.5748
0.14998,121212,3.8389,1.7273,0.0,2.2917,6.1709,0.57576
0.14999,121572,3.8462,1.7423,,0.0,6.2286,0.57689
0.14999,121932,3.854,1.7573,,1.9436,6.2863,0.57806
0.14998,122292,3.8615,1.7723,,0.0,6.3442,0.57915
0.14998,122652,3.8677,1.7873,,0.0,6.4021,0.58008
0.14999,123012,3.8728,1.8023,0.38045,,6.4602,0.58088
0.14999,123372,3.8774,1.8173,0.0,,6.5183,0.58157
0.14999,123732,3.8815,1.8323,0.0,,6.5765,0.58219
0.14998,124092,3.8854,1.8473,0.0,,6.6347,0.58273
0.14999,124452,3.8891,1.8623,0.0,,6.6931,0.58333
0.14997,124812,3.8925,1.8773,0.24424,,6.7514,0.58376
0.14999,125171.507,3.8959,1.8923,0.0,,6.8098,0.58435
0.14999,125532,3.8993,1.9073,0.0,0.0,6.8683,0.58486
0.14998,125892,3.9026,1.9223,0.22101,0.0,6.9268,0.58531
0.15,126251.507,3.9057,1.9373,0.0,,6.9853,0.58586
0.14998,126612,3.9088,1.9523,0.0,,7.0439,0.58624
0.14998,126972,3.9117,1.9673,0.0,,7.1026,0.58668
0.14999,127332,3.9148,1.9823,0.0,,7.1613,0.58718
0.14998,127692,3.9178,1.9973,0.0,,7.22,0.58759
0.14998,128052,3.9212,2.0123,0.0,,7.2788,0.5881
0.14999,128412,3.9244,2.0273,,0.0,7.3376,0.58862
0.14999,128772,3.9277,2.0423,,0.0,7.3965,0.58912
0.14997,129132,3.931,2.0573,,,7.4554,0.58953
0.14998,129492,3.9348,2.0723,,,7.5144,0.59014
0.14998,129852,3.9388,2.0873,,,7.5735,0.59074
0.14998,130212,3.9427,2.1023,0.25741,0.0,7.6326,0.59133
0.14998,130572,3.9468,2.1173,0.0,,7.6917,0.59194
0.14998,130932,3.9513,2.1323,0.0,0.0,7.751,0.59262
0.14998,131292,3.9562,2.1473,0.0,,7.8103,0.59335
0.14998,131652,3.9611,2.1623,0.0,,7.8696,0.59409
0.14998,132012,3.966,2.1773,0.0,,7.9291,0.59482
0.14998,132372,3.9714,2.1923,0.0,,7.9886,0.59563
0.14997,132731.508,3.977,2.2073,0.0,0.0,8.0482,0.59643
0.14999,133092,3.9829,2.2223,0.37877,0.0,8.1079,0.5974
0.14998,133452,3.9888,2.2373,0.0,2.5232,8.1677,0.59824
0.14999,133812,3.995,2.2523,0.0,,8.2276,0.59921
0.14998,134171.508,4.001,2.2673,0.0,0.0,8.2875,0.60007
0.14998,134532,4.0073,2.2823,0.0,0.0,8.3476,0.60101
0.14999,134892,4.0138,2.2973,,2.3888,8.4077,0.60203
0.14999,135252,4.0201,2.3123,,,8.468,0.60297
0.14998,135612,4.0262,2.3273,,,8.5283,0.60385
0.14998,135972,4.0323,2.3423,,0.0,8.5887,0.60476
0.14999,136332,4.038,2.3573,,2.5423,8.6493,0.60566
0.14998,136692,4.0438,2.3723,,2.6088,8.7099,0.60649
0.14998,137052,4.0493,2.3873,,,8.7706,0.60731
0.14998,137412,4.0548,2.4023,0.0,,8.8313,0.60814
0.14999,137771.506,4.0597,2.4173,0.0,,8.8922,0.60891
0.14998,138132,4.0643,2.4323,0.0,,8.9531,0.60956
0.14998,138492,4.0688,2.4472,0.0,,9.0141,0.61024
0.14997,138852,4.0729,2.4622,0.28463,0.0,9.0752,0.61081
0.14997,139211.508,4.0762,2.4772,0.0,,9.1363,0.61131
0.14998,139572,4.0789,2.4922,0.0,,9.1974,0.61175
0.14998,139932,4.0811,2.5072,0.0,,9.2586,0.61208
0.14999,140292,4.0829,2.5222,,,9.3198,0.61239
0.14998,140651.506,4.0844,2.5372,,0.0,9.3811,0.61258
0.14998,140712,4.0846,2.5397,0.0,,9.3913,0.61261

File: Cycle 72_discharge.csv
Current(A),Test_Time(s),Voltage(V),Discharge_Capacity(Ah),dV/dQ(V/Ah),dQ/dV(Ah/V),Discharge_Energy(Wh),Power(W)
-0.15002,14544,4.0704,0.41255,,,1.692,-0.61064
-0.15001,14904,4.0691,0.42755,,,1.7531,-0.61041
-0.15002,15264,4.0677,0.44255,0.0,,1.8141,-0.61024
-0.15001,15624,4.066,0.45755,0.0,,1.8751,-0.60994
-0.15001,15984,4.0636,0.47255,0.0,,1.9361,-0.60958
-0.15001,16344,4.0607,0.48756,,,1.997,-0.60915
-0.15001,16704,4.0575,0.50256,,,2.0579,-0.60867
-0.15001,17063.974,4.0536,0.51756,,,2.1188,-0.60808
-0.15001,17424,4.0494,0.53256,,0.0,2.1795,-0.60745
-0.15002,17784,4.0446,0.54756,,0.0,2.2402,-0.60677
-0.15002,18144,4.0396,0.56256,0.0,,2.3009,-0.60602
-0.15002,18503.974,4.0343,0.57756,0.0,0.0,2.3614,-0.60523
-0.15002,18864,4.0291,0.59257,0.0,0.0,2.4219,-0.60445
-0.15002,19224,4.0236,0.60757,0.0,0.0,2.4823,-0.60362
-0.15002,19584,4.0176,0.62257,,,2.5426,-0.60272
-0.15002,19944,4.0115,0.63757,,0.0,2.6029,-0.60181
-0.15001,20304,4.0055,0.65257,,2.494,2.663,-0.60087
-0.15001,20664,3.9993,0.66757,0.0,,2.723,-0.59993
-0.15001,21024,3.9927,0.68258,0.0,0.0,2.783,-0.59894
-0.15002,21384,3.9865,0.69758,0.0,0.0,2.8428,-0.59805
-0.15001,21744,3.9803,0.71258,,2.4048,2.9026,-0.59708
-0.15001,22103.975,3.9743,0.72758,0.0,,2.9623,-0.59618
-0.15002,22464,3.9683,0.74258,,0.0,3.0218,-0.59532
-0.15001,22824,3.9623,0.75758,0.0,,3.0813,-0.59438
-0.15002,23184,3.9566,0.77258,0.0,0.0,3.1407,-0.59357
-0.15002,23544,3.9512,0.78759,0.0,,3.2,-0.59276
-0.15002,23904,3.946,0.80259,,,3.2593,-0.59198
-0.15001,24264,3.9413,0.81759,,,3.3184,-0.59123
-0.15001,24624,3.9364,0.83259,,,3.3775,-0.5905
-0.15002,24984,3.9318,0.84759,,,3.4365,-0.58985
-0.15002,25343.973,3.9273,0.86259,,0.0,3.4955,-0.58917
-0.15001,25704,3.9234,0.8776,,,3.5544,-0.58855
-0.15002,26064,3.9194,0.8926,0.0,0.0,3.6132,-0.58799
-0.15001,26424,3.9155,0.9076,0.0,4.0339,3.672,-0.58736
-0.15002,26783.973,3.9118,0.9226,0.0,0.0,3.7307,-0.58685
-0.15002,27144,3.9083,0.9376,0.0,0.0,3.7893,-0.58632
-0.15001,27504,3.905,0.9526,0.0,,3.8479,-0.58579
-0.15001,27864,3.9016,0.9676,0.0,,3.9065,-0.58528
-0.15002,28224,3.8982,0.9826,,0.0,3.965,-0.58481
-0.15,28584,3.8947,0.99761,,0.0,4.0234,-0.58421
-0.15001,28944,3.8913,1.0126,,0.0,4.0818,-0.58373
-0.15002,29303.974,3.888,1.0276,,0.0,4.1402,-0.58328
-0.15001,29664,3.8845,1.0426,,,4.1985,-0.58271
-0.15001,30024,3.8806,1.0576,0.23993,,4.2567,-0.58213
-0.15001,30384,3.8768,1.0726,0.0,,4.3149,-0.58156
-0.15001,30744,3.873,1.0876,0.0,,4.3731,-0.58099
-0.15001,31104,3.8688,1.1026,,0.0,4.4311,-0.58036
-0.15,31463.973,3.8642,1.1176,,,4.4891,-0.57963
-0.15001,31824,3.8595,1.1326,,,4.5471,-0.57896
-0.15002,32184,3.8545,1.1476,,,4.6049,-0.57825
-0.15001,32544,3.849,1.1626,0.0,,4.6627,-0.57739
-0.15001,32904,3.8431,1.1776,0.0,0.0,4.7204,-0.5765
-0.15002,33263.973,3.8365,1.1926,0.0,,4.778,-0.57555
-0.15,33624,3.8293,1.2076,,,4.8355,-0.5744
-0.15001,33984,3.8216,1.2226,,0.0,4.8929,-0.57328
-0.15002,34344,3.8141,1.2376,,,4.9502,-0.57219
-0.15001,34704,3.8071,1.2526,,0.0,5.0073,-0.5711
-0.15001,35064,3.8006,1.2676,0.44969,0.0,5.0644,-0.57013
-0.15001,35423.973,3.7945,1.2826,0.0,2.5059,5.1214,-0.56921
-0.15001,35783.974,3.789,1.2976,0.0,,5.1782,-0.56839
-0.15002,36144,3.7839,1.3126,0.0,,5.235,-0.56766
-0.15001,36504,3.7791,1.3276,0.0,,5.2918,-0.5669
-0.15002,36864,3.7742,1.3426,0.0,,5.3484,-0.56621
-0.15002,37224,3.7693,1.3576,0.0,,5.405,-0.56547
-0.15,37584,3.7646,1.3726,0.0,3.1822,5.4615,-0.56469
-0.15001,37944,3.7599,1.3876,,3.1801,5.5179,-0.56402
-0.15002,38304,3.7551,1.4026,,3.2019,5.5743,-0.56334
-0.15001,38664,3.7506,1.4176,0.31499,0.0,5.6306,-0.56263
-0.15001,39024,3.7458,1.4326,0.0,,5.6868,-0.56191
-0.15002,39384,3.7409,1.4476,0.31902,,5.743,-0.56121
-0.15002,39744,3.736,1.4626,,,5.7991,-0.56047
-0.15001,40103.973,3.7313,1.4776,,,5.8551,-0.55973
-0.15001,40464,3.7265,1.4926,,0.0,5.911,-0.55901
-0.15002,40824,3.7217,1.5076,,0.0,5.9669,-0.55833
-0.15001,41184,3.7167,1.5227,,0.0,6.0227,-0.55754
-0.15001,41544,3.7119,1.5377,,0.0,6.0784,-0.55682
-0.15002,41904,3.7072,1.5527,0.0,,6.134,-0.55615
-0.15001,42264,3.7026,1.5677,0.0,,6.1896,-0.55543
-0.15002,42624,3.6981,1.5827,,,6.2451,-0.55479
-0.15001,42984,3.6936,1.5977,,0.0,6.3006,-0.55408
-0.15002,43344,3.689,1.6127,0.0,,6.356,-0.55342
-0.15001,43704,3.6846,1.6277,0.0,3.4662,6.4113,-0.55273
-0.15001,44064,3.6806,1.6427,0.28675,0.0,6.4665,-0.55213
-0.15001,44424,3.6765,1.6577,0.0,,6.5217,-0.55151
-0.15,44784,3.6723,1.6727,0.0,0.0,6.5768,-0.55085
-0.15,45144,3.6684,1.6877,,0.0,6.6319,-0.55026
-0.15001,45504,3.6646,1.7027,,,6.6869,-0.54973
-0.15002,45864,3.6611,1.7177,,,6.7418,-0.54924
-0.15002,46224,3.6574,1.7327,,0.0,6.7967,-0.54868
-0.15002,46584,3.6539,1.7477,,0.0,6.8515,-0.54816
-0.15002,46943.973,3.6503,1.7627,0.23699,0.0,6.9063,-0.54762
-0.15001,47304,3.647,1.7777,0.0,,6.9611,-0.54709
-0.15002,47663.973,3.6438,1.7927,0.0,0.0,7.0158,-0.54664
-0.15001,48024,3.6405,1.8077,0.22264,0.0,7.0704,-0.54611
-0.15001,48384,3.6372,1.8227,0.0,,7.125,-0.54562
-0.15001,48744,3.634,1.8377,0.0,0.0,7.1795,-0.54514
-0.15002,49103.974,3.6309,1.8527,0.0,0.0,7.234,-0.54471
-0.15002,49464,3.6278,1.8677,,0.0,7.2885,-0.54424
-0.15002,49824,3.6248,1.8827,,,7.3429,-0.54379
-0.15002,50184,3.6217,1.8977,,0.0,7.3972,-0.54333
-0.15001,50544,3.6186,1.9127,0.0,,7.4515,-0.54283
-0.15001,50903.974,3.6155,1.9277,0.0,,7.5058,-0.54236
-0.15002,51264,3.6125,1.9427,0.0,,7.56,-0.54195
-0.15001,51624,3.6095,1.9577,0.0,,7.6142,-0.54146
-0.15002,51984,3.6064,1.9727,0.0,,7.6683,-0.54103
-0.15001,52344,3.6033,1.9877,0.0,,7.7224,-0.54053
-0.15003,52703.973,3.6001,2.0027,,4.7719,7.7764,-0.54012
-0.15003,53063.974,3.5968,2.0177,,0.0,7.8304,-0.53963
-0.15001,53424,3.5935,2.0327,,0.0,7.8843,-0.53906
-0.15001,53784,3.5904,2.0477,0.2151,0.0,7.9382,-0.5386
-0.15004,54144,3.5869,2.0627,0.0,,7.992,-0.53818
-0.15002,54504,3.5833,2.0777,0.0,,8.0458,-0.53757
-0.15001,54863.974,3.5797,2.0927,,4.1896,8.0996,-0.53699
-0.15002,55224,3.5761,2.1077,,0.0,8.1532,-0.53649
-0.15,55583.973,3.5723,2.1227,,0.0,8.2069,-0.53585
-0.15002,55944,3.5685,2.1377,,0.0,8.2604,-0.53535
-0.15002,56304,3.5646,2.1527,,3.9633,8.3139,-0.53476
-0.15003,56664,3.5605,2.1677,0.25865,0.0,8.3674,-0.53418
-0.15001,57024,3.5565,2.1827,0.0,,8.4208,-0.53351
-0.15001,57384,3.5525,2.1977,0.0,,8.4741,-0.53291
-0.15002,57743.973,3.5483,2.2127,,0.0,8.5273,-0.53232
-0.15002,58104,3.5437,2.2277,,,8.5805,-0.53163
-0.15003,58464,3.5391,2.2427,0.0,,8.6337,-0.53097
-0.15002,58823.975,3.5344,2.2577,0.0,3.1616,8.6867,-0.53023
-0.15002,59184,3.5296,2.2727,,3.1353,8.7397,-0.52951
-0.15003,59544,3.5247,2.2877,,3.0266,8.7926,-0.52881
-0.15002,59904,3.5198,2.3027,,3.0055,8.8455,-0.52804
-0.15002,60264,3.5147,2.3177,,3.0549,8.8982,-0.52728
-0.15001,60624,3.5099,2.3327,0.32274,3.0983,8.9509,-0.52652
-0.15002,60984,3.5054,2.3477,0.0,0.0,9.0035,-0.52588
-0.15002,61344,3.5008,2.3627,0.31198,,9.0561,-0.52519
-0.15002,61704,3.4961,2.3777,0.0,,9.1086,-0.52448
-0.15002,62064,3.491,2.3927,0.0,0.0,9.161,-0.52372
-0.15002,62424,3.4859,2.4077,,0.0,9.2133,-0.52295
-0.15002,62784,3.4805,2.4227,0.35915,,9.2656,-0.52214
-0.15003,63144,3.4746,2.4377,0.0,2.5147,9.3177,-0.52129
-0.15002,63504,3.4682,2.4528,0.0,,9.3698,-0.5203
-0.15002,63864,3.4617,2.4678,0.0,,9.4218,-0.51932
-0.15002,64224,3.4557,2.4828,0.0,0.0,9.4737,-0.51842
-0.15002,64584,3.4498,2.4978,,2.5005,9.5255,-0.51754
-0.15002,64943.973,3.4435,2.5128,0.0,,9.5772,-0.51659
-0.15002,65304,3.4367,2.5278,,0.0,9.6288,-0.51557
-0.15002,65664,3.4302,2.5428,0.43655,0.0,9.6803,-0.5146
-0.15002,66024,3.4245,2.5578,0.0,2.5862,9.7317,-0.51374
-0.15002,66384,3.4199,2.5728,,3.1207,9.7831,-0.51305
-0.15001,66744,3.416,2.5878,,0.0,9.8343,-0.51243
-0.15002,67104,3.4123,2.6028,,0.0,9.8855,-0.51191
-0.15002,67463.975,3.4089,2.6178,,,9.9367,-0.5114
-0.15002,67823.973,3.4056,2.6328,,,9.9878,-0.51091
-0.15002,68184,3.402,2.6478,,,10.039,-0.51037
-0.15002,68544,3.398,2.6628,0.0,0.0,10.09,-0.50977
-0.15002,68904,3.394,2.6778,,,10.141,-0.50917
-0.15001,69264,3.3897,2.6928,,3.4424,10.192,-0.50849
-0.15001,69624,3.385,2.7078,,0.0,10.243,-0.50778
-0.15002,69984,3.38,2.7228,0.32252,2.9253,10.293,-0.50707
-0.15002,70344,3.3744,2.7378,0.0,2.6939,10.344,-0.50623
-0.15002,70704,3.368,2.7528,0.0,,10.395,-0.50527
-0.15002,71064,3.3611,2.7678,0.0,,10.445,-0.50423
-0.15001,71424,3.353,2.7828,,,10.495,-0.50298
-0.15001,71784,3.3433,2.7978,0.0,1.5347,10.546,-0.50153
-0.15002,72144,3.3305,2.8128,0.88828,,10.596,-0.49964
-0.15002,72504,3.3121,2.8278,0.0,0.75634,10.645,-0.49688
-0.15002,72864,3.2868,2.8428,1.7505,0.56164,10.695,-0.49309
-0.15001,73224,3.257,2.8578,2.0297,0.47937,10.744,-0.48858
-0.15002,73584,3.2234,2.8728,,0.42846,10.793,-0.48357
-0.15003,73944,3.1853,2.8878,2.6118,0.37814,10.841,-0.47789
-0.15002,74304,3.1419,2.9028,,0.32798,10.888,-0.47135
-0.15002,74664,3.0909,2.9178,,0.27459,10.935,-0.4637
-0.15002,75024,3.0294,2.9328,4.4817,0.22459,10.981,-0.45447
-0.15002,75384,2.9507,2.9478,5.7764,0.16887,11.026,-0.44266
-0.15002,75744,2.8361,2.9628,9.8995,0.099371,11.069,-0.42547
-0.15003,76103.973,2.5393,2.9778,20.717,0.048942,11.11,-0.38097
-0.14987,76151.4,2.5011,2.9798,19.612,0.051096,11.115,-0.37484