Folder: battery-analysis-project/Data/monotonic_segments (part 3)

File: Cycle 520_charge.csv
Current(A),Test_Time(s),Voltage(V),Charge_Capacity(Ah),dV/dQ(V/Ah),dQ/dV(Ah/V),Charge_Energy(Wh),Power(W)
0.14999,977.665,4.2037,0.0292,-5.0442,-0.13021,0.12334,0.63051
0.14998,77474.422,3.1294,0.03999,4.0237,0.25024,0.12099,0.46935
0.14998,77834.423,3.1827,0.05498,3.3436,0.30273,0.16832,0.47734
0.14998,78194.422,3.2269,0.06997,,0.36392,0.21638,0.48397
0.14998,78554.422,3.264,0.08497,,0.42737,0.26505,0.48953
0.14997,78914.422,3.2966,0.09996,,0.47925,0.31425,0.49439
0.14999,79274.422,3.3255,0.11496,,0.54306,0.36389,0.49879
0.14998,79634.422,3.3507,0.12995,1.647,0.61914,0.41395,0.50254
0.14998,79994.423,3.3712,0.14494,,,0.46435,0.50561
0.14998,80354.422,3.3845,0.15994,,1.2362,0.51501,0.50761
0.14999,80714.423,3.3931,0.17493,0.0,,0.56583,0.50893
0.14998,81074.423,3.3996,0.18993,,,0.61675,0.50987
0.14999,81434.423,3.405,0.20492,,0.0,0.66777,0.51072
0.14998,81794.423,3.41,0.21991,0.0,0.0,0.71886,0.51143
0.14998,82154.422,3.4148,0.23491,0.0,0.0,0.77002,0.51215
0.14999,82514.422,3.4192,0.2499,,,0.82125,0.51285
0.14998,82874.422,3.4233,0.26489,,3.5647,0.87254,0.51343
0.14999,83234.422,3.4272,0.27988,,0.0,0.92389,0.51405
0.14998,83594.422,3.4313,0.29488,,0.0,0.97531,0.51463
0.14999,83954.422,3.4349,0.30987,,,1.0268,0.5152
0.14999,84314.423,3.4388,0.32486,,,1.0783,0.51579
0.14998,84674.422,3.443,0.33986,,,1.1299,0.51638
0.14998,85034.422,3.447,0.35485,,,1.1815,0.51698
0.14999,85394.422,3.4512,0.36984,0.0,0.0,1.2333,0.51765
0.14998,85754.422,3.4554,0.38483,0.0,,1.285,0.51824
0.14997,86114.422,3.46,0.39983,,0.0,1.3369,0.5189
0.14998,86474.423,3.4649,0.41482,,0.0,1.3888,0.51967
0.14998,86834.423,3.4702,0.42982,0.0,0.0,1.4408,0.52046
0.14997,87194.422,3.4758,0.44481,0.0,0.0,1.4929,0.52127
0.14998,87554.422,3.4816,0.4598,,,1.545,0.52217
0.14999,87914.422,3.4874,0.4748,,0.0,1.5973,0.52308
0.14998,88274.422,3.4935,0.48979,,2.4614,1.6496,0.52396
0.14998,88634.422,3.4996,0.50479,,,1.702,0.52487
0.14998,88994.422,3.5058,0.51978,,0.0,1.7545,0.5258
0.14998,89354.422,3.5118,0.53477,0.0,,1.8072,0.5267
0.14998,89714.423,3.5178,0.54977,0.40262,0.0,1.8599,0.5276
0.14998,90074.423,3.524,0.56476,0.0,2.4959,1.9127,0.52853
0.14998,90434.422,3.53,0.57976,0.0,,1.9655,0.52943
0.14998,90794.423,3.5359,0.59475,0.0,0.0,2.0185,0.53031
0.14998,91154.423,3.5416,0.60974,0.0,,2.0716,0.53117
0.14998,91514.423,3.5473,0.62474,0.0,0.0,2.1247,0.53202
0.14998,91874.423,3.5528,0.63973,,,2.1779,0.53285
0.14998,92234.423,3.5579,0.65473,0.35609,,2.2313,0.53361
0.14998,92594.422,3.5631,0.66972,0.0,,2.2846,0.53439
0.14997,92954.422,3.5684,0.68471,0.34355,2.9437,2.3381,0.53515
0.14998,93314.422,3.5733,0.69971,0.0,0.0,2.3916,0.53592
0.14998,93674.422,3.5781,0.7147,0.32461,,2.4453,0.53664
0.14997,94034.423,3.5825,0.7297,0.0,,2.4989,0.53727
0.14997,94394.422,3.5869,0.74469,0.0,,2.5527,0.53793
0.14998,94754.422,3.5911,0.75968,0.0,0.0,2.6065,0.53859
0.14997,95114.422,3.5952,0.77468,0.0,0.0,2.6604,0.53917
0.14999,95474.422,3.5991,0.78967,0.0,,2.7143,0.53983
0.14998,95834.422,3.6029,0.80467,0.0,,2.7683,0.54036
0.14999,96194.422,3.6064,0.81966,,,2.8224,0.54092
0.14998,96554.423,3.61,0.83465,,,2.8765,0.54143
0.14998,96914.422,3.6137,0.84965,,4.2293,2.9306,0.54198
0.14998,97274.422,3.6171,0.86464,,0.0,2.9848,0.54249
0.14998,97634.422,3.6204,0.87964,0.0,,3.0391,0.54299
0.14998,97994.422,3.6238,0.89463,0.0,4.458,3.0934,0.5435
0.14998,98354.422,3.6271,0.90962,0.0,0.0,3.1478,0.54399
0.14999,98714.422,3.6304,0.92462,0.0,,3.2022,0.54452
0.14998,99074.422,3.6335,0.93961,0.0,4.6892,3.2566,0.54495
0.14998,99434.422,3.6366,0.95461,0.0,0.0,3.3111,0.54542
0.14998,99794.422,3.6397,0.9696,,0.0,3.3657,0.54588
0.14998,100154.422,3.6431,0.98459,,0.0,3.4203,0.54639
0.14998,100514.423,3.6463,0.99959,,,3.4749,0.54687
0.14998,100874.423,3.6493,1.0146,,0.0,3.5296,0.54732
0.14998,101234.422,3.6525,1.0296,0.0,0.0,3.5843,0.5478
0.14998,101594.423,3.6558,1.0446,0.0,0.0,3.6391,0.5483
0.14998,101954.422,3.6593,1.0596,0.0,,3.694,0.54882
0.14998,102314.422,3.6626,1.0746,0.0,,3.7489,0.54932
0.14999,102674.422,3.666,1.0895,0.0,0.0,3.8038,0.54986
0.14997,103034.422,3.6693,1.1045,0.0,,3.8588,0.55028
0.14998,103394.423,3.6728,1.1195,0.0,,3.9138,0.55085
0.14998,103754.422,3.6766,1.1345,0.0,,3.9689,0.55142
0.14998,104114.422,3.6803,1.1495,,,4.0241,0.55197
0.14997,104474.423,3.684,1.1645,,,4.0793,0.55249
0.14998,104834.422,3.6878,1.1795,0.25317,,4.1346,0.5531
0.14998,105194.422,3.6918,1.1945,0.0,,4.1899,0.5537
0.14998,105554.423,3.696,1.2095,0.0,,4.2453,0.55433
0.14999,105914.422,3.7003,1.2245,,0.0,4.3007,0.55501
0.14998,106274.422,3.7046,1.2395,,,4.3563,0.55562
0.14998,106634.422,3.7089,1.2545,,3.374,4.4118,0.55626
0.14997,106994.422,3.7135,1.2695,,3.3033,4.4675,0.55691
0.14998,107354.423,3.7183,1.2845,0.30564,0.0,4.5232,0.55767
0.14998,107714.422,3.7231,1.2995,0.0,,4.579,0.55839
0.14996,108074.422,3.728,1.3145,0.32107,,4.6349,0.55905
0.14998,108434.422,3.7327,1.3295,0.0,,4.6908,0.55983
0.14998,108794.422,3.7377,1.3445,0.33193,,4.7468,0.56058
0.14998,109154.423,3.7427,1.3594,,,4.8029,0.56133
0.14999,109514.423,3.7481,1.3744,0.34011,,4.859,0.56218
0.14998,109874.423,3.7531,1.3894,0.0,,4.9153,0.56289
0.14997,110234.422,3.7582,1.4044,0.34319,,4.9716,0.56362
0.14998,110594.422,3.7633,1.4194,0.0,2.9172,5.028,0.56442
0.14998,110954.422,3.7687,1.4344,0.34391,2.9242,5.0844,0.56523
0.14998,111314.422,3.7737,1.4494,0.0,2.9235,5.141,0.56598
0.14998,111674.422,3.7789,1.4644,,2.9618,5.1976,0.56676
0.14999,112034.422,3.7839,1.4794,,2.9597,5.2543,0.56755
0.14997,112394.422,3.789,1.4944,,2.9739,5.3111,0.56824
0.14999,112754.422,3.7938,1.5094,,3.0239,5.3679,0.56903
0.14998,113114.423,3.7987,1.5244,,2.9933,5.4248,0.56973
0.14997,113474.422,3.8037,1.5394,,3.0208,5.4818,0.57044
0.14998,113834.422,3.8088,1.5544,,3.0192,5.5389,0.57124
0.14998,114194.422,3.8138,1.5694,,3.0001,5.5961,0.57199
0.14998,114554.423,3.8189,1.5844,,2.9818,5.6533,0.57276
0.14998,114914.422,3.8237,1.5994,,2.9828,5.7106,0.57348
0.14998,115274.423,3.8288,1.6143,,2.9537,5.7679,0.57424
0.14998,115634.422,3.8339,1.6293,,2.9279,5.8254,0.57501
0.14999,115994.422,3.8392,1.6443,,2.9194,5.8829,0.57584
0.14998,116354.423,3.8444,1.6593,,,5.9405,0.57658
0.14999,116714.422,3.8494,1.6743,,,5.9982,0.57737
0.14998,117074.422,3.8546,1.6893,,,6.056,0.57811
0.14998,117434.423,3.8599,1.7043,0.0,,6.1138,0.57891
0.14998,117794.422,3.8652,1.7193,0.0,,6.1717,0.5797
0.14998,118154.423,3.8704,1.7343,0.0,0.0,6.2297,0.58048
0.14998,118514.422,3.8755,1.7493,0.0,0.0,6.2878,0.58125
0.14998,118874.422,3.8806,1.7643,,0.0,6.3459,0.58201
0.14997,119234.422,3.8859,1.7793,,0.0,6.4041,0.58277
0.14998,119594.422,3.8909,1.7943,,0.0,6.4624,0.58356
0.14998,119954.422,3.8956,1.8093,,0.0,6.5208,0.58426
0.14998,120314.423,3.9001,1.8243,,0.0,6.5793,0.58494
0.14998,120674.422,3.9046,1.8393,,,6.6378,0.58561
0.14998,121034.423,3.9087,1.8542,,3.687,6.6963,0.58623
0.14997,121394.423,3.9122,1.8692,,0.0,6.755,0.58671
0.14997,121754.422,3.9157,1.8842,0.0,0.0,6.8137,0.58724
0.14998,122114.423,3.9192,1.8992,0.0,,6.8724,0.5878
0.14998,122474.423,3.9227,1.9142,0.0,,6.9312,0.58833
0.14998,122834.422,3.9262,1.9292,0.0,0.0,6.99,0.58885
0.14998,123194.423,3.9297,1.9442,0.0,,7.0489,0.58938
0.14998,123554.422,3.933,1.9592,0.0,,7.1079,0.58987
0.14998,123914.422,3.9368,1.9742,0.0,,7.1669,0.59044
0.14998,124274.422,3.941,1.9892,0.0,,7.2259,0.59107
0.14999,124634.423,3.9451,2.0042,0.0,0.0,7.2851,0.59173
0.14996,124994.423,3.9493,2.0192,0.0,,7.3442,0.59224
0.14998,125354.422,3.9539,2.0342,,3.3049,7.4035,0.59301
0.14998,125714.423,3.9587,2.0492,,3.1288,7.4628,0.59373
0.14999,126074.422,3.9639,2.0642,,2.9893,7.5222,0.59455
0.14998,126434.423,3.9689,2.0792,,2.8541,7.5817,0.59526
0.14998,126794.422,3.9745,2.0941,,,7.6412,0.5961
0.14998,127154.422,3.9802,2.1091,0.0,,7.7009,0.59695
0.14998,127514.422,3.9863,2.1241,0.0,0.0,7.7606,0.59787
0.14999,127874.422,3.9925,2.1391,0.0,,7.8204,0.59884
0.14998,128234.423,3.9985,2.1541,0.41494,2.3632,7.8803,0.5997
0.14998,128594.422,4.0049,2.1691,0.0,,7.9403,0.60065
0.14998,128954.422,4.0116,2.1841,,0.0,8.0004,0.60166
0.14999,129314.422,4.0181,2.1991,0.43234,0.0,8.0606,0.60267
0.14999,129674.422,4.0246,2.2141,0.0,2.3166,8.1209,0.60365
0.14999,130034.423,4.0307,2.2291,0.0,0.0,8.1813,0.60456
0.14999,130394.422,4.0369,2.2441,0.0,,8.2418,0.60549
0.14998,130754.422,4.0432,2.2591,,0.0,8.3024,0.6064
0.14998,131114.422,4.0489,2.2741,,2.5747,8.363,0.60725
0.14998,131474.422,4.0544,2.2891,,,8.4238,0.60808
0.14998,131834.423,4.0599,2.3041,0.0,,8.4846,0.6089
0.14998,132194.422,4.0651,2.3191,0.0,,8.5455,0.60968
0.14997,132554.422,4.0696,2.3341,0.0,,8.6065,0.61032
0.14998,132914.422,4.0738,2.349,0.0,3.4797,8.6676,0.61099
0.14998,133274.422,4.0775,2.364,0.0,0.0,8.7287,0.61154
0.14998,133634.422,4.0805,2.379,,,8.7898,0.61199
0.14999,133994.422,4.0826,2.394,,,8.851,0.61235
0.14998,134294.422,4.084,2.4065,0.0,,8.9021,0.61252

File: Cycle 520_discharge.csv
Current(A),Test_Time(s),Voltage(V),Discharge_Capacity(Ah),dV/dQ(V/Ah),dQ/dV(Ah/V),Discharge_Energy(Wh),Power(W)
-0.14999,12257.959,4.0726,0.31986,0.0,,1.3107,-0.61085
-0.14999,12617.959,4.0714,0.33485,,0.0,1.3718,-0.61067
-0.14999,12977.959,4.0702,0.34984,,0.0,1.4328,-0.61049
-0.14999,13337.959,4.0688,0.36484,,0.0,1.4938,-0.61028
-0.15,13697.959,4.0673,0.37983,,0.0,1.5548,-0.6101
-0.15,14057.959,4.0656,0.39483,,,1.6158,-0.60984
-0.14999,14417.959,4.0635,0.40982,,,1.6768,-0.60948
-0.14999,14777.959,4.0607,0.42481,,,1.7377,-0.60906
-0.14999,15137.96,4.0573,0.43981,,,1.7985,-0.60855
-0.15,15497.96,4.0536,0.4548,,,1.8593,-0.60804
-0.14999,15857.96,4.0498,0.46979,,,1.9201,-0.60743
-0.14999,16217.96,4.0454,0.48479,,0.0,1.9808,-0.60677
-0.15,16577.959,4.0408,0.49978,0.0,,2.0414,-0.60612
-0.14999,16937.959,4.0357,0.51478,0.0,,2.1019,-0.60531
-0.15,17297.959,4.0306,0.52977,,,2.1624,-0.60459
-0.14997,17657.96,4.0255,0.54477,,,2.2228,-0.6037
-0.14999,18017.959,4.0199,0.55976,0.0,0.0,2.2831,-0.60294
-0.15,18377.959,4.0142,0.57476,0.0,,2.3434,-0.60213
-0.15,18737.959,4.008,0.58975,0.0,,2.4035,-0.6012
-0.15,19097.96,4.002,0.60475,0.40113,0.0,2.4636,-0.6003
-0.14999,19457.959,3.996,0.61974,0.0,,2.5235,-0.59936
-0.15,19817.96,3.9898,0.63474,0.0,0.0,2.5834,-0.59847
-0.15,20177.959,3.9834,0.64973,0.0,,2.6432,-0.59751
-0.15,20537.96,3.9772,0.66473,0.0,0.0,2.7029,-0.59658
-0.15,20897.959,3.9714,0.67972,0.40431,2.4902,2.7625,-0.59571
-0.15,21257.959,3.9655,0.69471,0.0,,2.822,-0.59483
-0.14999,21617.959,3.9597,0.70971,0.0,0.0,2.8814,-0.59392
-0.14999,21977.96,3.9541,0.7247,0.0,,2.9407,-0.59308
-0.15,22337.959,3.9488,0.7397,,,3.0,-0.59232
-0.15,22697.959,3.9439,0.75469,,,3.0591,-0.59159
-0.14999,23057.96,3.9389,0.76969,0.0,,3.1182,-0.5908
-0.15,23417.959,3.9342,0.78469,0.0,,3.1773,-0.59013
-0.14999,23777.959,3.9297,0.79968,,,3.2362,-0.58942
-0.15,24137.96,3.9253,0.81468,,0.0,3.2951,-0.5888
-0.15,24497.96,3.921,0.82967,,,3.354,-0.58815
-0.14999,24857.959,3.917,0.84467,,,3.4127,-0.58751
-0.14998,25217.959,3.9133,0.85966,,,3.4714,-0.58692
-0.15,25577.959,3.9096,0.87466,0.0,,3.5301,-0.58644
-0.14998,25937.959,3.906,0.88965,0.0,,3.5887,-0.58582
-0.14999,26297.959,3.9021,0.90465,0.0,,3.6472,-0.58528
-0.15001,26657.959,3.8985,0.91965,,,3.7057,-0.58481
-0.14999,27017.959,3.8947,0.93464,,,3.7642,-0.58417
-0.14999,27377.96,3.8911,0.94964,,,3.8225,-0.58363
-0.15,27737.959,3.887,0.96463,,,3.8808,-0.58305
-0.15,28097.959,3.8827,0.97963,,,3.9391,-0.58241
-0.15,28457.959,3.8779,0.99462,,,3.9973,-0.58169
-0.14999,28817.959,3.8729,1.0096,,0.0,4.0554,-0.5809
-0.15,29177.959,3.8675,1.0246,,0.0,4.1134,-0.58013
-0.14999,29537.959,3.862,1.0396,0.36707,,4.1714,-0.57926
-0.14999,29897.959,3.8563,1.0546,0.0,2.5864,4.2293,-0.57841
-0.14999,30257.959,3.8502,1.0696,,,4.287,-0.57749
-0.15,30617.959,3.8443,1.0846,,0.0,4.3447,-0.57665
-0.14999,30977.959,3.8385,1.0996,,,4.4023,-0.57574
-0.15,31337.959,3.8329,1.1146,,0.0,4.4598,-0.57494
-0.15,31697.96,3.8273,1.1296,,0.0,4.5173,-0.5741
-0.15,32057.959,3.8217,1.1446,0.36973,2.7154,4.5746,-0.57326
-0.15,32417.959,3.8163,1.1596,0.0,2.764,4.6319,-0.57245
-0.14999,32777.96,3.8108,1.1746,,2.7808,4.6891,-0.57158
-0.15,33137.959,3.8057,1.1896,,,4.7462,-0.57086
-0.15,33497.959,3.8005,1.2046,0.0,,4.8032,-0.57008
-0.14999,33857.959,3.7953,1.2195,0.0,,4.8602,-0.56926
-0.15,34217.96,3.79,1.2345,0.0,,4.917,-0.5685
-0.14999,34577.959,3.785,1.2495,0.0,0.0,4.9738,-0.56771
-0.14999,34937.959,3.7801,1.2645,0.0,0.0,5.0305,-0.56698
-0.15001,35297.96,3.7751,1.2795,0.0,0.0,5.0872,-0.5663
-0.15,35657.96,3.7701,1.2945,0.0,0.0,5.1438,-0.56552
-0.14999,36017.959,3.765,1.3095,0.0,0.0,5.2002,-0.56471
-0.14999,36377.959,3.76,1.3245,0.0,,5.2567,-0.56396
-0.14998,36737.96,3.7551,1.3395,0.0,,5.313,-0.56319
-0.14999,37097.96,3.7501,1.3545,0.0,,5.3693,-0.56248
-0.14999,37457.959,3.7452,1.3695,0.0,,5.4255,-0.56174
-0.14999,37817.96,3.7402,1.3845,0.0,,5.4816,-0.56099
-0.14998,38177.959,3.735,1.3995,0.0,,5.5376,-0.56018
-0.14999,38537.96,3.7297,1.4145,0.0,0.0,5.5936,-0.55942
-0.14999,38897.959,3.7246,1.4295,0.0,0.0,5.6495,-0.55865
-0.14999,39257.96,3.7197,1.4445,0.0,0.0,5.7053,-0.55792
-0.15,39617.959,3.7146,1.4595,0.0,0.0,5.761,-0.55719
-0.14999,39977.96,3.7096,1.4745,0.0,0.0,5.8167,-0.5564
-0.15,40337.96,3.7045,1.4895,0.0,0.0,5.8723,-0.55568
-0.14999,40697.96,3.6997,1.5044,0.0,0.0,5.9278,-0.55492
-0.14999,41057.96,3.695,1.5194,0.0,,5.9832,-0.55421
-0.14999,41417.959,3.6905,1.5344,0.0,,6.0386,-0.55354
-0.14999,41777.96,3.686,1.5494,0.0,3.2843,6.0939,-0.55286
-0.15,42137.959,3.6814,1.5644,0.30165,3.4082,6.1492,-0.55221
-0.14999,42497.959,3.6771,1.5794,0.0,0.0,6.2043,-0.55153
-0.14999,42857.959,3.673,1.5944,0.0,,6.2594,-0.55091
-0.15,43217.959,3.6689,1.6094,0.0,,6.3145,-0.55034
-0.14998,43577.96,3.6649,1.6244,0.0,0.0,6.3695,-0.54966
-0.15,43937.959,3.6611,1.6394,,3.8308,6.4244,-0.54917
-0.14999,44297.96,3.6573,1.6544,,0.0,6.4793,-0.54856
-0.14999,44657.959,3.6535,1.6694,,0.0,6.5341,-0.54799
-0.14998,45017.959,3.6498,1.6844,,0.0,6.5888,-0.5474
-0.14999,45377.96,3.6463,1.6994,,4.1667,6.6435,-0.54691
-0.15,45737.959,3.6429,1.7144,,0.0,6.6982,-0.54644
-0.14999,46097.96,3.6394,1.7294,0.0,,6.7528,-0.54587
-0.14998,46457.959,3.6358,1.7444,0.0,,6.8073,-0.5453
-0.15,46817.959,3.6324,1.7594,0.0,,6.8618,-0.54486
-0.14999,47177.959,3.6292,1.7744,,0.0,6.9163,-0.54434
-0.14999,47537.959,3.6259,1.7894,0.0,,6.9707,-0.54385
-0.14999,47897.959,3.6226,1.8043,0.0,,7.025,-0.54335
-0.14999,48257.959,3.6191,1.8193,,0.0,7.0793,-0.54283
-0.14999,48617.959,3.6157,1.8343,,,7.1335,-0.54232
-0.14999,48977.96,3.6123,1.8493,,,7.1877,-0.54181
-0.14999,49337.959,3.6089,1.8643,,0.0,7.2419,-0.5413
-0.14999,49697.96,3.6055,1.8793,,,7.296,-0.54079
-0.15,50057.96,3.6021,1.8943,,,7.35,-0.54032
-0.14999,50417.959,3.5985,1.9093,,,7.404,-0.53974
-0.14998,50777.959,3.5947,1.9243,,0.0,7.4579,-0.53913
-0.15,51137.959,3.591,1.9393,,4.0543,7.5118,-0.53865
-0.14998,51497.96,3.5873,1.9543,,0.0,7.5656,-0.53802
-0.15,51857.96,3.5835,1.9693,,0.0,7.6194,-0.53753
-0.14999,52217.959,3.5795,1.9843,,0.0,7.6731,-0.53689
-0.15,52577.959,3.5755,1.9993,,,7.7267,-0.53633
-0.14999,52937.959,3.5714,2.0143,0.26546,,7.7803,-0.53567
-0.15,53297.959,3.5674,2.0293,0.0,,7.8338,-0.53511
-0.14999,53657.96,3.5632,2.0443,0.0,0.0,7.8873,-0.53444
-0.14999,54017.959,3.5588,2.0593,0.0,,7.9407,-0.53378
-0.14998,54377.959,3.5543,2.0743,0.0,0.0,7.994,-0.53307
-0.15,54737.959,3.5499,2.0892,0.0,,8.0473,-0.53249
-0.14999,55097.959,3.5454,2.1042,0.0,,8.1005,-0.53177
-0.15,55457.96,3.5408,2.1192,,3.2366,8.1536,-0.53112
-0.14999,55817.959,3.5359,2.1342,,3.2055,8.2067,-0.53035
-0.14999,56177.959,3.5311,2.1492,0.31336,3.1656,8.2596,-0.52963
-0.14999,56537.959,3.5266,2.1642,0.0,0.0,8.3126,-0.52895
-0.14999,56897.96,3.5218,2.1792,0.31877,,8.3654,-0.52823
-0.15,57257.96,3.5168,2.1942,0.0,,8.4182,-0.52752
-0.15,57617.96,3.5118,2.2092,0.32761,,8.4709,-0.52677
-0.14999,57977.96,3.5067,2.2242,0.0,,8.5235,-0.52597
-0.15,58337.96,3.5017,2.2392,0.34065,,8.576,-0.52526
-0.14999,58697.959,3.4962,2.2542,0.0,2.8311,8.6285,-0.5244
-0.15,59057.959,3.4908,2.2692,,2.7398,8.6809,-0.52362
-0.14999,59417.959,3.4851,2.2842,,,8.7332,-0.52273
-0.14999,59777.959,3.4795,2.2992,0.0,,8.7854,-0.52189
-0.14999,60137.96,3.4737,2.3142,0.0,0.0,8.8375,-0.52102
-0.14999,60497.96,3.4678,2.3292,0.0,,8.8896,-0.52014
-0.14999,60857.96,3.4617,2.3442,0.40127,0.0,8.9415,-0.51922
-0.14999,61217.959,3.4554,2.3592,0.0,2.4329,8.9934,-0.51828
-0.14999,61577.959,3.4494,2.3741,0.0,,9.0452,-0.51738
-0.15,61937.959,3.4433,2.3891,0.0,,9.0968,-0.5165
-0.14999,62297.96,3.4374,2.4041,0.0,,9.1484,-0.51558
-0.14999,62657.959,3.4322,2.4191,0.0,0.0,9.1999,-0.5148
-0.15,63017.96,3.4275,2.4341,,0.0,9.2514,-0.51413
-0.15001,63377.959,3.423,2.4491,,0.0,9.3027,-0.51348
-0.14999,63737.959,3.419,2.4641,0.0,,9.354,-0.51282
-0.14999,64097.959,3.4147,2.4791,0.0,0.0,9.4053,-0.51217
-0.14999,64457.959,3.4104,2.4941,0.0,,9.4564,-0.51153
-0.14999,64817.96,3.406,2.5091,,3.4637,9.5075,-0.51087
-0.15,65177.959,3.4016,2.5241,0.29321,0.0,9.5586,-0.51024
-0.14998,65537.959,3.3969,2.5391,0.0,,9.6096,-0.50947
-0.15,65897.959,3.3918,2.5541,0.32828,,9.6605,-0.50877
-0.14999,66257.959,3.3861,2.5691,0.0,2.7005,9.7113,-0.50788
-0.15,66617.959,3.3799,2.5841,,,9.762,-0.50699
-0.14999,66977.96,3.3732,2.5991,,0.0,9.8126,-0.50595
-0.15001,67337.959,3.3652,2.6141,0.0,1.8459,9.8632,-0.50481
-0.15,67697.96,3.3557,2.6291,,1.5334,9.9136,-0.50336
-0.14999,68057.959,3.3444,2.6441,,1.3,9.9638,-0.50163
-0.15,68417.959,3.331,2.6591,0.9008,1.0633,10.014,-0.49965
-0.15,68777.959,3.3153,2.6741,0.0,0.90037,10.064,-0.4973
-0.14999,69137.96,3.297,2.6891,,,10.113,-0.49452
-0.14999,69497.96,3.2757,2.704,,0.66013,10.163,-0.49132
-0.14999,69857.96,3.2504,2.719,1.7602,0.55311,10.211,-0.48753
-0.14999,70217.96,3.2203,2.734,2.1003,0.47263,10.26,-0.48301
-0.15,70577.959,3.185,2.749,,0.39971,10.308,-0.47775
-0.14999,70937.959,3.1437,2.764,,0.34342,10.355,-0.47152
-0.15,71297.96,3.0952,2.779,3.3938,0.28491,10.402,-0.46428
-0.14999,71657.959,3.0365,2.794,4.1998,0.23534,10.448,-0.45544
-0.14999,72017.959,2.9626,2.809,5.3598,0.18016,10.493,-0.44436
-0.15,72377.959,2.86,2.824,8.4631,0.11496,10.537,-0.429
-0.14999,72737.959,2.6376,2.839,19.273,0.052784,10.578,-0.39561
-0.15,72914.339,2.5,2.8463,17.669,0.057062,10.597,-0.375