Folder: battery-analysis-project/Data/processed_data (part 2)

File: Cycle 72_discharge.csv
Current(A),Test_Time(s),Voltage(V),Discharge_Capacity(Ah),dV/dQ(V/Ah),dQ/dV(Ah/V),Discharge_Energy(Wh),Power(W),Downsampled Voltage (V),Downsampled Capacity (Ah),dQ/dV from downsampled Voltage (Ah/V),dV/dQ from downsampled Cpacity (V/Ah),Downsampled Energy (Wh),Downsampled Power (W),dP/dE from downsampled Energy (W/Wh),dQ/dV from LEAN (Ah/V),Delta_V (V) in LEAN
-0.15002,14544,4.0704,0.41255,,,1.692,-0.61064,,,,,1.692,-0.610633,0.00352393,5.25434,0.0056
-0.15001,15204,4.0678,0.44005,,0.0,1.8039,-0.61021,,,,,1.8039,-0.610244,0.00399569,5.66668,0.0056
-0.15002,15864,4.0645,0.46755,0.0,,1.9158,-0.60976,,,,,1.9158,-0.609735,0.00619116,5.66668,0.0056
-0.15001,16524,4.0594,0.49506,0.0,0.0,2.0275,-0.60895,,,,,2.0275,-0.608924,0.00837627,4.99235,0.0056
-0.15001,17184,4.0523,0.52256,,,2.139,-0.60789,,,,,2.139,-0.607891,0.010438,3.98511,0.0056
-0.15002,17844,4.0437,0.55006,0.0,,2.2504,-0.60664,,,,,2.2504,-0.606641,0.0118476,3.06662,0.0056
-0.15002,18503.974,4.0343,0.57756,0.0,0.0,2.3614,-0.60523,4.0343,0.57756,-2.76687,-0.361879,2.3614,-0.605227,0.0133259,2.82291,0.0056
-0.15003,19163.973,4.0245,0.60507,,,2.4723,-0.6038,,,,,2.4723,-0.603743,0.0143548,2.70828,0.0056
-0.15002,19824,4.0138,0.63257,,0.0,2.5828,-0.60215,4.0138,0.63257,-2.53896,-0.395,2.5828,-0.602135,0.0149242,2.46573,0.0056
-0.15002,20484,4.0022,0.66007,0.0,,2.693,-0.60041,4.0022,0.66007,-2.41034,-0.415,2.693,-0.600414,0.0157786,2.45129,0.0056
-0.15002,21144,3.9907,0.68758,0.41143,2.3134,2.803,-0.59868,,,,,2.803,-0.598675,0.015738,2.38734,0.0056
-0.15003,21804,3.9794,0.71508,0.0,,2.9126,-0.59703,,,,,2.9126,-0.596947,0.0166858,2.40739,0.0056
-0.15002,22464,3.9683,0.74258,,0.0,3.0218,-0.59532,,,,,3.0218,-0.595283,0.014408,2.50583,0.0056
-0.15001,23124,3.9576,0.77008,,,3.1308,-0.59368,3.9576,0.77008,-2.77445,-0.361368,3.1308,-0.593697,0.0138589,2.69974,0.0056
-0.15002,23784,3.9478,0.79759,,,3.2395,-0.59225,,,,,3.2395,-0.592229,0.0125063,2.94521,0.0056
-0.15002,24444,3.9386,0.82509,0.0,0.0,3.348,-0.59087,,,,,3.348,-0.590864,0.0125799,3.19746,0.0056
-0.15002,25104,3.9304,0.85259,,3.3209,3.4562,-0.58964,,,,,3.4562,-0.589625,0.0117894,3.40288,0.0056
-0.15,25764,3.9227,0.8801,0.0,0.0,3.5642,-0.58841,,,,,3.5642,-0.588436,0.00993055,3.65308,0.0056
-0.15001,26424,3.9155,0.9076,0.0,4.0339,3.672,-0.58736,,,,,3.672,-0.587378,0.00970458,4.05153,0.0056
-0.15,27084,3.9089,0.9351,,,3.7796,-0.58634,,,,,3.7796,-0.58639,0.00875252,4.23008,0.0056
-0.15001,27744,3.9025,0.9626,0.0,,3.887,-0.58541,,,,,3.887,-0.585435,0.00852784,4.3533,0.0056
-0.15001,28404,3.8965,0.9901,0.0,,3.9942,-0.58451,,,,,3.9942,-0.584522,0.009265,4.39247,0.0056
-0.15001,29064,3.8903,1.0176,,4.5533,4.1013,-0.58358,3.8903,1.0176,-4.39693,-0.228571,4.1013,-0.583573,0.00875928,4.33325,0.0056
-0.15001,29724,3.8837,1.0451,0.0,0.0,4.2082,-0.58259,,,,,4.2082,-0.582603,0.00819816,4.19856,0.0056
-0.15001,30384,3.8768,1.0726,0.0,,4.3149,-0.58156,,,,,4.3149,-0.581588,0.010528,3.75533,0.0056
-0.15001,31044,3.8695,1.1001,0.0,,4.4214,-0.58046,,,,,4.4214,-0.580445,0.0108426,3.5022,0.0056
-0.15001,31704,3.8613,1.1276,,,4.5278,-0.57923,,,,,4.5278,-0.579205,0.0116403,3.26141,0.0056
-0.15001,32364,3.8519,1.1551,0.0,0.0,4.6338,-0.57782,,,,,4.6338,-0.577823,0.0142762,2.76662,0.0056
-0.15002,33024,3.8409,1.1826,0.40013,0.0,4.7396,-0.57621,,,,,4.7396,-0.576191,0.0164421,2.35197,0.0056
-0.15,33684,3.828,1.2101,0.0,0.0,4.8451,-0.5742,,,,,4.8451,-0.57422,0.0193114,2.05874,0.0056
-0.15002,34344,3.8141,1.2376,,,4.9502,-0.57219,3.8141,1.2376,-2.03891,-0.493333,4.9502,-0.572197,0.0189911,2.09884,0.0056
-0.15002,35004,3.8016,1.2651,0.0,,5.0549,-0.57032,3.8016,1.2651,-2.31385,-0.432381,5.0549,-0.570289,0.0167894,2.34343,0.0056
-0.15002,35664,3.7909,1.2926,0.38813,0.0,5.1593,-0.56871,,,,,5.1593,-0.568685,0.0137419,2.77989,0.0056
-0.15002,36324,3.7813,1.3201,,0.0,5.2634,-0.56727,,,,,5.2634,-0.567296,0.0125127,3.04365,0.0056
-0.15002,36984,3.7724,1.3476,0.0,,5.3673,-0.56594,,,,,5.3673,-0.565951,0.0126065,3.13146,0.0056
-0.15,37644,3.7638,1.3751,,,5.4709,-0.56457,,,,,5.4709,-0.564612,0.0117604,3.17834,0.0056
-0.15002,38304,3.7551,1.4026,,3.2019,5.5743,-0.56334,,,,,5.5743,-0.563344,0.0138546,3.17063,0.0056
-0.15001,38964,3.7467,1.4301,,0.0,5.6775,-0.56204,,,,,5.6775,-0.562036,0.0124703,3.12673,0.0056
-0.15001,39624,3.7378,1.4576,,,5.7804,-0.56071,3.7378,1.4576,-3.125,-0.32,5.7804,-0.560706,0.0129436,3.11526,0.0056
-0.15001,40284,3.7288,1.4851,0.0,,5.8831,-0.55936,,,,,5.8831,-0.559373,0.0127466,3.09521,0.0056
-0.15001,40944,3.7199,1.5127,,3.1026,5.9855,-0.55802,,,,,5.9855,-0.558042,0.0135599,3.12292,0.0056
-0.15001,41604,3.7112,1.5402,0.0,,6.0877,-0.55672,,,,,6.0877,-0.556717,0.0133682,3.15443,0.0056
-0.15001,42264,3.7026,1.5677,0.0,,6.1896,-0.55543,,,,,6.1896,-0.555434,0.0130792,3.26907,0.0056
-0.15001,42923.974,3.6943,1.5952,0.0,,6.2913,-0.55418,3.6943,1.5952,-3.34491,-0.299152,6.2913,-0.55419,0.012075,3.34454,0.0056
-0.15001,43583.974,3.6863,1.6227,0.0,,6.3928,-0.55298,3.6863,1.6227,-3.41049,-0.293455,6.3928,-0.552972,0.0113966,3.51751,0.0056
-0.15001,44244,3.6784,1.6502,,0.0,6.4941,-0.5518,3.6784,1.6502,-3.73082,-0.26819,6.4941,-0.551804,0.0107746,3.66074,0.0056
-0.15001,44904,3.6711,1.6777,0.0,0.0,6.5952,-0.5507,,,,,6.5952,-0.550695,0.0108897,3.79158,0.0056
-0.15002,45564,3.6642,1.7052,0.0,0.0,6.696,-0.5497,,,,,6.696,-0.549651,0.0109255,4.05534,0.0056
-0.15002,46224,3.6574,1.7327,,0.0,6.7967,-0.54868,,,,,6.7967,-0.548652,0.00975663,4.24247,0.0056
-0.15002,46884,3.651,1.7602,0.0,,6.8972,-0.54772,,,,,6.8972,-0.547697,0.00912677,4.38393,0.0056
-0.15001,47544,3.6446,1.7877,0.0,,6.9975,-0.54673,,,,,6.9975,-0.546773,0.00838136,4.50623,0.0056
-0.15002,48204,3.6388,1.8152,,0.0,7.0977,-0.54589,,,,,7.0977,-0.545883,0.00922539,4.62941,0.0056
-0.15001,48864,3.633,1.8427,0.0,0.0,7.1977,-0.54499,,,,,7.1977,-0.545014,0.00849791,4.7355,0.0056
-0.15002,49524,3.6274,1.8702,0.0,,7.2975,-0.54418,,,,,7.2975,-0.544159,0.00918526,4.85014,0.0056
-0.15002,50184,3.6217,1.8977,,0.0,7.3972,-0.54333,,,,,7.3972,-0.543317,0.00837256,4.95035,0.0056
-0.15001,50844,3.6161,1.9252,,0.0,7.4967,-0.54245,,,,,7.4967,-0.542462,0.00805136,4.958,0.0056
-0.15002,51504,3.6105,1.9527,0.20546,,7.5961,-0.54165,,,,,7.5961,-0.541643,0.00862471,4.87785,0.0056
-0.15002,52164,3.6047,1.9802,,4.8625,7.6953,-0.54078,,,,,7.6953,-0.54078,0.00903779,4.78707,0.0056
-0.15001,52823.973,3.599,2.0077,,0.0,7.7944,-0.53989,,,,,7.7944,-0.539924,0.00879435,4.68482,0.0056
-0.15002,53484,3.5932,2.0352,0.0,,7.8933,-0.53905,,,,,7.8933,-0.539027,0.00860528,4.54248,0.0056
-0.15004,54144,3.5869,2.0627,0.0,,7.992,-0.53818,,,,,7.992,-0.538099,0.00914021,4.36388,0.0056
-0.15002,54804,3.5802,2.0902,0.23357,0.0,8.0906,-0.5371,,,,,8.0906,-0.537128,0.0106141,4.09924,0.0056
-0.15002,55464,3.5735,2.1177,,0.0,8.189,-0.5361,,,,,8.189,-0.536082,0.0118619,4.00465,0.0056
-0.15002,56124,3.5666,2.1452,0.0,,8.2872,-0.53506,,,,,8.2872,-0.535061,0.0116864,3.89002,0.0056
-0.15001,56783.974,3.5593,2.1727,0.0,,8.3852,-0.53393,,,,,8.3852,-0.533952,0.0125835,3.75533,0.0056
-0.15002,57444,3.5518,2.2002,,0.0,8.483,-0.53284,,,,,8.483,-0.532813,0.0116588,3.51074,0.0056
-0.15002,58104,3.5437,2.2277,,,8.5805,-0.53163,,,,,8.5805,-0.531625,0.0126121,3.36839,0.0056
-0.15001,58764,3.5352,2.2552,,0.0,8.6779,-0.53032,,,,,8.6779,-0.530338,0.013054,3.11053,0.0056
-0.15002,59424,3.5263,2.2827,,0.0,8.775,-0.52902,3.5263,2.2827,-3.01993,-0.332,8.775,-0.529031,0.0137754,3.0675,0.0056
-0.15002,60084,3.5171,2.3102,0.0,,8.8719,-0.52764,,,,,8.8719,-0.527657,0.0142765,3.09521,0.0056
-0.15002,60744,3.5086,2.3377,0.0,0.0,8.9685,-0.52636,,,,,8.9685,-0.52632,0.01269,3.14678,0.0056
-0.15003,61404,3.4999,2.3652,,3.2325,9.0648,-0.52509,,,,,9.0648,-0.525052,0.0139175,3.15532,0.0056
-0.15002,62064,3.491,2.3927,0.0,0.0,9.161,-0.52372,,,,,9.161,-0.523734,0.0139098,2.9175,0.0056
-0.15002,62724,3.4813,2.4202,0.0,0.0,9.2569,-0.52226,,,,,9.2569,-0.522266,0.0164912,2.73598,0.0056
-0.15002,63384,3.4704,2.4477,0.40244,0.0,9.3525,-0.52063,3.4704,2.4477,-2.31505,-0.432709,9.3525,-0.520592,0.018409,2.4065,0.0056
-0.15002,64044,3.4588,2.4753,,,9.4477,-0.51889,,,,,9.4477,-0.518855,0.0163344,2.41124,0.0056
-0.15002,64704,3.4476,2.5028,,0.0,9.5427,-0.51721,,,,,9.5427,-0.517211,0.0177929,2.41978,0.0056
-0.15001,65364,3.4356,2.5303,0.0,,9.6374,-0.51537,,,,,9.6374,-0.515396,0.0204274,2.35109,0.0056
-0.15002,66024,3.4245,2.5578,0.0,2.5862,9.7317,-0.51374,,,,,9.7317,-0.513737,0.0164877,2.79636,0.0056
-0.15001,66684,3.4166,2.5853,0.0,,9.8258,-0.51252,,,,,9.8258,-0.512512,0.0105309,3.86881,0.0056
-0.15001,67344,3.41,2.6128,,0.0,9.9197,-0.51153,3.41,2.6128,-4.21809,-0.237143,9.9197,-0.511544,0.00968108,4.16589,0.0056
-0.15001,68004,3.4037,2.6403,0.0,0.0,10.013,-0.51059,,,,,10.013,-0.510629,0.0104951,4.13257,0.0056
-0.15002,68664,3.3968,2.6678,0.0,0.0,10.107,-0.50959,,,,,10.107,-0.509582,0.0116819,3.88236,0.0056
-0.15002,69323.974,3.3889,2.6953,0.0,,10.2,-0.5084,,,,,10.2,-0.508399,0.0137923,3.23756,0.0056
-0.15002,69984,3.38,2.7228,0.32252,2.9253,10.293,-0.50707,,,,,10.293,-0.507044,0.0165848,2.92516,0.0056
-0.15002,70644,3.3692,2.7503,,2.4742,10.386,-0.50545,,,,,10.386,-0.505438,0.0192035,2.38734,0.0056
-0.15002,71304,3.3558,2.7778,,,10.479,-0.50344,,,,,10.479,-0.503452,0.0242673,1.77113,0.0056
-0.15001,71964,3.3373,2.8053,,,10.571,-0.50063,3.3373,2.8053,-1.15496,-0.866667,10.571,-0.500668,0.0384726,1.17408,0.0056
-0.15003,72624,3.3042,2.8328,,0.63413,10.662,-0.49573,3.3042,2.8328,-0.625,-1.6,10.662,-0.495721,0.0755288,0.632409,0.0056
-0.15001,73284,3.2517,2.8603,,0.46981,10.752,-0.48779,3.2517,2.8603,-0.463281,-2.16,10.752,-0.487783,0.101211,0.45855,0.0056
-0.15003,73944,3.1853,2.8878,2.6118,0.37814,10.841,-0.47789,3.1853,2.8878,-0.370411,-2.7,10.841,-0.477851,0.126691,0.379278,0.0056
-0.15002,74604,3.1002,2.9153,3.5168,0.28896,10.927,-0.46509,3.1002,2.9153,-0.276665,-3.62,10.927,-0.465067,0.167376,0.264641,0.0056
-0.15001,75264,2.9795,2.9428,5.3685,0.1883,11.011,-0.44695,2.9795,2.9428,-0.181938,-5.5,11.011,-0.446983,0.293243,0.173859,0.0056
-0.15001,75924,2.7078,2.9703,23.247,0.043082,11.09,-0.4062,2.7078,2.9703,-0.0436403,-22.94,11.09,-0.405825,1.10146,0.0515639,0.0056
-0.14987,76151.4,2.5011,2.9798,19.612,0.051096,11.115,-0.37484,,,,,,,,0.0869296,0.0056

File: Cycle 295_charge.csv
Current(A),Test_Time(s),Voltage(V),Charge_Capacity(Ah),dV/dQ(V/Ah),dQ/dV(Ah/V),Charge_Energy(Wh),Power(W),Downsampled Voltage (V),Downsampled Capacity (Ah),dQ/dV from downsampled Voltage (Ah/V),dV/dQ from downsampled Cpacity (V/Ah),Downsampled Energy (Wh),Downsampled Power (W),dP/dE from downsampled Energy (W/Wh),dQ/dV from LEAN (Ah/V),Delta_V (V) in LEAN
0.14996,1129.154,4.1999,0.03634,0.0,0.0,0.15262,0.62982,4.1999,0.03634,-0.00337172,-475.131,,,,2.451,0.0056
0.14999,79721.453,3.1849,0.06,3.2006,0.31846,0.18329,0.4777,3.1849,0.06,0.320935,3.12,0.18329,0.477679,0.144401,3.30725,0.0056
0.14999,80381.453,3.2585,0.0875,,0.42308,0.27193,0.48874,3.2585,0.0875,0.431291,2.32,0.27193,0.488744,0.108385,3.38533,0.0056
0.14999,81041.452,3.3155,0.11499,,0.52781,0.36235,0.49729,3.3155,0.11499,0.555556,1.8,0.36235,0.497308,0.0839119,3.60657,0.0056
0.14998,81701.452,3.3601,0.14249,0.0,,0.45416,0.50395,,,,,0.45416,0.503991,0.06054,3.6742,0.0056
0.14999,82361.453,3.3847,0.16999,0.0,0.0,0.54695,0.50767,,,,,0.54695,0.507688,0.0246753,4.90396,0.0056
0.14999,83021.451,3.397,0.19749,0.0,2.5161,0.6402,0.50952,,,,,0.6402,0.509518,0.0150443,5.72639,0.0056
0.14999,83681.453,3.4062,0.22499,0.0,,0.73374,0.5109,3.4062,0.22499,3.25663,0.308,0.73374,0.510861,0.0136155,6.05758,0.0056
0.14998,84341.451,3.4141,0.25248,0.0,,0.82751,0.51205,3.4141,0.25248,3.66173,0.273429,0.82751,0.51205,0.0123556,6.56378,0.0056
0.14999,85001.451,3.4213,0.27998,0.27207,,0.92149,0.51316,,,,,0.92149,0.513183,0.0101273,6.75571,0.0056
0.14998,85661.452,3.4283,0.30748,,0.0,1.0157,0.51418,,,,,1.0157,0.514206,0.0115891,6.87806,0.0056
0.14999,86321.452,3.4354,0.33498,,,1.11,0.51528,,,,,1.11,0.51525,0.0107456,6.78307,0.0056
0.14999,86981.451,3.4428,0.36248,0.0,,1.2046,0.51639,,,,,1.2046,0.516357,0.0116645,6.53642,0.0056
0.14998,87641.452,3.4508,0.38997,,,1.2994,0.51755,,,,,1.2994,0.517565,0.0137297,6.29182,0.0056
0.14999,88301.451,3.4598,0.41747,0.0,,1.3944,0.51894,,,,,1.3944,0.518912,0.0151377,5.88255,0.0056
0.14999,88961.453,3.4698,0.44497,,,1.4897,0.52044,3.4698,0.44497,2.59828,0.385,1.4897,0.520432,0.017055,5.58518,0.0056
0.14997,89621.451,3.4806,0.47247,,,1.5852,0.52199,,,,,1.5852,0.522037,0.0170873,5.44593,0.0056
0.14999,90281.452,3.4918,0.49996,0.40805,2.4405,1.6811,0.52374,,,,,1.6811,0.523712,0.0169342,5.42902,0.0056
0.14998,90941.452,3.5031,0.52746,0.0,,1.7772,0.52539,,,,,1.7772,0.525387,0.0177334,5.41016,0.0056
0.14999,91601.451,3.514,0.55496,,0.0,1.8737,0.52706,3.514,0.55496,2.46989,0.405,1.8737,0.527054,0.0174004,5.49019,0.0056
0.15,92261.451,3.5249,0.58246,0.0,,1.9705,0.52874,,,,,1.9705,0.528716,0.0169011,5.52401,0.0056
0.14998,92921.451,3.5358,0.60995,,0.0,2.0676,0.5303,,,,,2.0676,0.530299,0.0150914,5.66521,0.0056
0.14998,93581.451,3.546,0.63745,,0.0,2.1649,0.53183,3.546,0.63745,2.66761,0.375,2.1649,0.531836,0.0155292,5.70948,0.0056
0.14998,94241.451,3.5561,0.66495,,0.0,2.2626,0.53334,,,,,2.2626,0.53335,0.0161153,5.68017,0.0056
0.14999,94901.453,3.5657,0.69245,,0.0,2.3605,0.53482,3.5657,0.69245,2.94427,0.340335,2.3605,0.534812,0.0152746,5.9964,0.0056
0.15,95561.451,3.5746,0.71994,0.0,,2.4587,0.53619,,,,,2.4587,0.536162,0.011634,6.40567,0.0056
0.14999,96221.451,3.5824,0.74744,0.0,,2.5571,0.53732,,,,,2.5571,0.537319,0.0103834,6.66072,0.0056
0.14998,96881.453,3.5896,0.77494,,0.0,2.6557,0.53837,,,,,2.6557,0.538388,0.0107304,6.83379,0.0056
0.15,97541.453,3.5965,0.80244,0.0,,2.7545,0.53948,,,,,2.7545,0.539432,0.0101412,6.98996,0.0056
0.14999,98201.452,3.603,0.82993,,,2.8535,0.54041,,,,,2.8535,0.540381,0.0104856,7.38427,0.0056
0.14999,98861.452,3.6091,0.85743,0.0,0.0,2.9526,0.54133,,,,,2.9526,0.541352,0.0094863,7.53193,0.0056
0.14999,99521.452,3.6154,0.88493,0.0,0.0,3.052,0.54227,,,,,3.052,0.542253,0.00978672,7.65428,0.0056
0.14999,100181.451,3.6211,0.91243,0.21387,,3.1515,0.54313,,,,,3.1515,0.543124,0.00882023,7.75122,0.0056
0.14998,100841.452,3.6267,0.93993,,,3.2511,0.54393,,,,,3.2511,0.543952,0.00846333,7.76812,0.0056
0.15,101501.452,3.6323,0.96742,0.0,,3.3509,0.54485,,,,,3.3509,0.544835,0.00858757,7.74927,0.0056
0.14999,102161.452,3.638,0.99492,,0.0,3.4509,0.54566,3.638,0.99492,4.89911,0.205113,3.4509,0.545661,0.00782038,7.78503,0.0056
0.15,102821.451,3.6437,1.0224,,,3.551,0.54656,,,,,3.551,0.546532,0.00837624,7.81239,0.0056
0.15,103481.451,3.6495,1.0499,0.0,0.0,3.6513,0.54743,,,,,3.6513,0.54739,0.00791875,7.76812,0.0056
0.14999,104141.453,3.6553,1.0774,0.0,0.0,3.7517,0.54826,,,,,3.7517,0.548238,0.00902943,7.65428,0.0056
0.14998,104801.453,3.6611,1.1049,0.2141,,3.8523,0.54909,,,,,3.8523,0.54914,0.00923641,7.53193,0.0056
0.14998,105461.452,3.6673,1.1324,,4.4881,3.953,0.55002,,,,,3.953,0.550038,0.00907087,7.40117,0.0056
0.14999,106121.453,3.6737,1.1599,0.0,0.0,4.054,0.55102,,,,,4.054,0.551017,0.00962425,7.26192,0.0056
0.14998,106781.451,3.6804,1.1874,,,4.1551,0.55199,,,,,4.1551,0.551995,0.00981175,7.0869,0.0056
0.14998,107441.452,3.6871,1.2149,,3.9544,4.2564,0.55299,,,,,4.2564,0.553011,0.0112598,6.72835,0.0056
0.14999,108101.454,3.6944,1.2424,,,4.3579,0.55412,,,,,4.3579,0.554121,0.0101545,6.6061,0.0056
0.14998,108761.451,3.702,1.2699,,3.5669,4.4596,0.55523,3.702,1.2699,3.58766,0.28,4.4596,0.555285,0.0129465,6.55528,0.0056
0.14998,109421.452,3.71,1.2974,0.0,0.0,4.5615,0.55643,3.71,1.2974,3.34402,0.3,4.5615,0.556477,0.0121007,6.30023,0.0056
0.14999,110081.454,3.7186,1.3249,,0.0,4.6636,0.55775,,,,,4.6636,0.557742,0.0122616,6.21374,0.0056
0.14999,110741.452,3.7274,1.3524,,3.105,4.766,0.55907,,,,,4.766,0.559055,0.0131639,6.11875,0.0056
0.14999,111401.451,3.7364,1.3799,0.0,,4.8686,0.56042,,,,,4.8686,0.560405,0.0136388,6.01331,0.0056
0.14999,112061.451,3.7456,1.4074,,0.0,4.9715,0.5618,,,,,4.9715,0.561797,0.0139723,5.89946,0.0056
0.14998,112721.452,3.7547,1.4349,0.0,,5.0746,0.56313,,,,,5.0746,0.563192,0.0138657,5.89946,0.0056
0.14999,113381.452,3.7641,1.4624,,0.0,5.178,0.56458,,,,,5.178,0.564603,0.0125246,5.91637,0.0056
0.14999,114041.451,3.7736,1.4899,0.0,,5.2816,0.566,,,,,5.2816,0.565985,0.0135322,5.95213,0.0056
0.15,114701.453,3.7827,1.5174,,2.9868,5.3855,0.56741,,,,,5.3855,0.567376,0.013361,5.9879,0.0056
0.14998,115361.453,3.7917,1.5449,0.33258,,5.4896,0.56868,,,,,5.4896,0.568719,0.0130094,6.0049,0.0056
0.14999,116021.451,3.8008,1.5724,,0.0,5.594,0.57008,,,,,5.594,0.570061,0.0123236,5.9964,0.0056
0.14999,116681.453,3.81,1.5999,0.0,,5.6986,0.57146,3.81,1.5999,3.01292,0.332,5.6986,0.571438,0.012762,5.93523,0.0056
0.14998,117341.451,3.8191,1.6274,,0.0,5.8035,0.57279,,,,,5.8035,0.572801,0.0134455,5.88255,0.0056
0.14998,118001.452,3.8287,1.6549,0.0,0.0,5.9087,0.57423,,,,,5.9087,0.574263,0.0143405,5.80447,0.0056
0.14998,118661.451,3.8387,1.6824,0.0,,6.0141,0.57573,,,,,6.0141,0.575772,0.014746,5.64636,0.0056
0.14998,119321.451,3.8491,1.7099,0.0,0.0,6.1198,0.57729,,,,,6.1198,0.57732,0.0146513,5.55137,0.0056
0.14999,119981.451,3.8597,1.7374,0.0,0.0,6.2258,0.57892,,,,,6.2258,0.578933,0.0156896,5.5071,0.0056
0.14998,120641.452,3.8707,1.7649,,,6.3321,0.58053,,,,,6.3321,0.580535,0.0150746,5.52401,0.0056
0.14999,121301.451,3.8811,1.7924,0.0,0.0,6.4387,0.58213,,,,,6.4387,0.582117,0.0132999,5.77711,0.0056
0.14998,121961.451,3.8903,1.8199,0.0,,6.5455,0.58347,3.8903,1.8199,3.30775,0.304,6.5455,0.583467,0.0115276,6.34449,0.0056
0.14998,122621.451,3.8978,1.8474,,,6.6526,0.58459,3.8978,1.8474,3.90776,0.256044,6.6526,0.584624,0.01015,6.75571,0.0056
0.14999,123281.451,3.9045,1.8749,0.0,0.0,6.7599,0.58564,,,,,6.7599,0.585651,0.00868932,7.13116,0.0056
0.14999,123941.451,3.9106,1.9023,0.0,0.0,6.8673,0.58655,,,,,6.8673,0.586582,0.00846891,7.60356,0.0056
0.15,124601.451,3.9164,1.9298,0.0,0.0,6.9749,0.58746,,,,,6.9749,0.587445,0.00630084,7.61196,0.0056
0.14999,125261.452,3.9224,1.9573,0.0,4.7458,7.0827,0.58832,,,,,7.0827,0.58828,0.00807407,7.46235,0.0056
0.14999,125921.452,3.9284,1.9848,,0.0,7.1906,0.58922,,,,,7.1906,0.589207,0.00840272,7.27882,0.0056
0.14999,126581.451,3.9347,2.0123,0.0,0.0,7.2988,0.59017,,,,,7.2988,0.590176,0.00933618,7.03617,0.0056
0.14999,127241.452,3.9419,2.0398,,,7.4071,0.59125,3.9419,2.0398,3.62391,0.276667,7.4071,0.59125,0.0106739,6.71144,0.0056
0.15,127901.451,3.9499,2.0673,0.0,,7.5156,0.59249,3.9499,2.0673,3.33452,0.3,7.5156,0.59243,0.0105645,6.2495,0.0056
0.14998,128561.453,3.9585,2.0948,,,7.6243,0.5937,,,,,7.6243,0.593693,0.0132902,6.09334,0.0056
0.14998,129221.451,3.9677,2.1223,,2.8862,7.7333,0.59508,,,,,7.7333,0.595126,0.0132795,5.77711,0.0056
0.14999,129881.453,3.9778,2.1498,,2.6638,7.8425,0.59663,3.9778,2.1498,2.67521,0.375,7.8425,0.59665,0.0137164,5.52401,0.0056
0.14999,130541.453,3.9889,2.1773,,,7.952,0.5983,,,,,7.952,0.598279,0.0152575,5.38475,0.0056
0.14999,131201.451,4.0003,2.2048,0.0,0.0,8.0619,0.6,,,,,8.0619,0.599986,0.0150932,5.36784,0.0056
0.14999,131861.452,4.0119,2.2323,0.42796,0.0,8.172,0.60174,,,,,8.172,0.601745,0.0167706,5.2709,0.0056
0.14999,132521.451,4.0237,2.2598,0.0,,8.2825,0.60351,,,,,8.2825,0.60352,0.0159766,5.33208,0.0056
0.14999,133181.452,4.035,2.2873,,0.0,8.3933,0.60521,,,,,8.3933,0.60523,0.014046,5.49019,0.0056
0.14999,133841.453,4.0462,2.3148,,,8.5044,0.60689,4.0462,2.3148,2.6053,0.385,8.5044,0.606841,0.0132879,5.60209,0.0056
0.14999,134501.452,4.0563,2.3423,,0.0,8.6158,0.6084,,,,,8.6158,0.608367,0.0125595,5.95213,0.0056
0.14999,135161.452,4.0653,2.3698,,,8.7275,0.60975,,,,,8.7275,0.609769,0.0111483,6.24755,0.0056
0.14998,135821.452,4.0732,2.3973,,,8.8394,0.6109,,,,,8.8394,0.610927,0.00894465,7.13466,0.0056
0.14999,136481.454,4.0793,2.4248,0.0,,8.9515,0.61185,,,,,8.9515,0.611839,0.00597719,6.48233,0.0056
0.14997,137141.453,4.083,2.4523,,0.0,9.0637,0.61233,4.083,2.4523,7.5,0.129949,9.0637,0.61234,0.000925545,6.48233,0.0056