Folder: battery-analysis-project/Data/processed_data (part 5)

File: Cycle 745_discharge.csv
Current(A),Test_Time(s),Voltage(V),Discharge_Capacity(Ah),dV/dQ(V/Ah),dQ/dV(Ah/V),Discharge_Energy(Wh),Power(W),Downsampled Voltage (V),Downsampled Capacity (Ah),dQ/dV from downsampled Voltage (Ah/V),dV/dQ from downsampled Cpacity (V/Ah),Downsampled Energy (Wh),Downsampled Power (W),dP/dE from downsampled Energy (W/Wh),dQ/dV from LEAN (Ah/V),Delta_V (V) in LEAN
-0.14999,13096.735,4.0668,0.34739,0.0,0.0,1.4217,-0.60998,,,,,1.4217,-0.609989,0.00283182,5.29666,0.0056
-0.14998,13756.734,4.0631,0.37488,,7.4492,1.5334,-0.60938,,,,,1.5334,-0.609398,0.00635669,5.29666,0.0056
-0.14999,14416.735,4.0576,0.40238,,5.2428,1.6451,-0.6086,,,,,1.6451,-0.608619,0.00701681,4.78859,0.0056
-0.14999,15076.736,4.0506,0.42987,0.0,,1.7565,-0.60755,,,,,1.7565,-0.607583,0.0107642,3.7102,0.0056
-0.14999,15736.736,4.0428,0.45736,,3.5966,1.8678,-0.60638,,,,,1.8678,-0.606417,0.0101676,3.38987,0.0056
-0.14999,16396.736,4.0343,0.48485,0.0,0.0,1.9788,-0.6051,4.0343,0.48485,-3.05113,-0.328125,1.9788,-0.605106,0.0121801,3.03943,0.0056
-0.14998,17056.735,4.0253,0.51234,,,2.0896,-0.60371,,,,,2.0896,-0.603719,0.0135487,2.92262,0.0056
-0.15,17716.735,4.0154,0.53984,,0.0,2.2001,-0.60231,,,,,2.2001,-0.602267,0.0132367,2.71826,0.0056
-0.14998,18376.736,4.005,0.56733,,,2.3104,-0.60067,,,,,2.3104,-0.60069,0.014542,2.60145,0.0056
-0.15,19036.736,3.9942,0.59482,0.0,,2.4203,-0.59913,3.9942,0.59482,-2.59828,-0.385,2.4203,-0.599113,0.0136119,2.52573,0.0056
-0.14999,19696.737,3.9833,0.62231,0.0,0.0,2.53,-0.59746,,,,,2.53,-0.597476,0.0143523,2.5522,0.0056
-0.15,20356.736,3.9726,0.6498,,2.5915,2.6393,-0.59589,,,,,2.6393,-0.595864,0.0155855,2.6206,0.0056
-0.14998,21016.735,3.9622,0.67729,0.0,2.6395,2.7484,-0.59425,3.9622,0.67729,-2.74971,-0.363754,2.7484,-0.59428,0.0142262,2.64986,0.0056
-0.14999,21676.736,3.952,0.70479,0.0,2.8393,2.8572,-0.59276,,,,,2.8572,-0.592812,0.0134774,2.83591,0.0056
-0.15,22336.735,3.9427,0.73228,0.0,2.9823,2.9657,-0.59141,,,,,2.9657,-0.591397,0.0122044,3.05406,0.0056
-0.15,22996.734,3.9339,0.75977,,0.0,3.074,-0.59009,3.9339,0.75977,-3.24785,-0.308,3.074,-0.590083,0.0122723,3.20186,0.0056
-0.14998,23656.736,3.9258,0.78726,,0.0,3.182,-0.58879,3.9258,0.78726,-3.53312,-0.283118,3.182,-0.588829,0.0101946,3.51851,0.0056
-0.14999,24316.735,3.9184,0.81475,0.28225,0.0,3.2899,-0.58772,3.9184,0.81475,-3.75494,-0.266684,3.2899,-0.587683,0.0110996,3.70009,0.0056
-0.14999,24976.735,3.9112,0.84225,0.0,0.0,3.3975,-0.58664,,,,,3.3975,-0.58663,0.00844869,3.86784,0.0056
-0.15,25636.736,3.9044,0.86974,,,3.5049,-0.58566,,,,,3.5049,-0.58563,0.00923651,3.85153,0.0056
-0.14999,26296.735,3.897,0.89723,,,3.6121,-0.58451,,,,,3.6121,-0.584537,0.00977835,3.72372,0.0056
-0.14999,26956.735,3.8894,0.92472,0.0,0.0,3.7192,-0.58337,,,,,3.7192,-0.5834,0.010266,3.51572,0.0056
-0.15,27616.735,3.8809,0.95222,0.0,0.0,3.826,-0.58214,,,,,3.826,-0.582122,0.0125646,3.01944,0.0056
-0.15,28276.737,3.8712,0.97971,,,3.9326,-0.58068,,,,,3.9326,-0.580659,0.0143597,2.80213,0.0056
-0.14999,28936.735,3.8614,1.0072,,,4.0389,-0.57917,,,,,4.0389,-0.579169,0.0155091,2.71462,0.0056
-0.14999,29596.734,3.8509,1.0347,,,4.1449,-0.5776,,,,,4.1449,-0.577607,0.0137711,2.63523,0.0056
-0.14999,30256.735,3.8404,1.0622,,0.0,4.2507,-0.57602,,,,,4.2507,-0.576043,0.0152438,2.70363,0.0056
-0.14999,30916.736,3.8304,1.0897,0.0,0.0,4.3561,-0.57452,3.8304,1.0897,-2.77778,-0.36,4.3561,-0.574542,0.0143733,2.75204,0.0056
-0.14999,31576.736,3.8207,1.1172,0.0,0.0,4.4613,-0.57307,,,,,4.4613,-0.573056,0.0142613,2.86238,0.0056
-0.14999,32236.736,3.8111,1.1447,,,4.5662,-0.57163,,,,,4.5662,-0.571628,0.0146313,2.89252,0.0056
-0.15,32896.737,3.8015,1.1722,,,4.6709,-0.57023,,,,,4.6709,-0.570202,0.0140437,2.91447,0.0056
-0.15,33556.735,3.7924,1.1997,0.0,2.9209,4.7753,-0.56886,,,,,4.7753,-0.568822,0.0135931,2.99103,0.0056
-0.15,34216.736,3.7832,1.2272,,,4.8794,-0.56748,,,,,4.8794,-0.567464,0.0134792,2.99018,0.0056
-0.15001,34876.735,3.774,1.2547,0.0,0.0,4.9833,-0.56614,3.774,1.2547,-3.01292,-0.332,4.9833,-0.566071,0.0128416,3.02481,0.0056
-0.15,35536.735,3.7648,1.2822,,,5.087,-0.56472,,,,,5.087,-0.564701,0.012785,3.00933,0.0056
-0.14999,36196.737,3.7556,1.3097,0.0,0.0,5.1903,-0.5633,,,,,5.1903,-0.56332,0.014342,2.97919,0.0056
-0.15,36856.735,3.7465,1.3372,,,5.2935,-0.56198,,,,,5.2935,-0.561936,0.0142302,2.9564,0.0056
-0.14999,37516.737,3.7372,1.3647,,2.9367,5.3964,-0.56054,,,,,5.3964,-0.560542,0.0131779,2.94093,0.0056
-0.15,38176.736,3.7276,1.3921,0.34181,,5.499,-0.55914,,,,,5.499,-0.559158,0.0135662,2.92994,0.0056
-0.14999,38836.736,3.7183,1.4196,,0.0,5.6014,-0.55771,3.7183,1.4196,-2.91126,-0.343778,5.6014,-0.557745,0.014313,2.9674,0.0056
-0.14998,39496.736,3.7092,1.4471,0.0,,5.7035,-0.55631,,,,,5.7035,-0.556358,0.0132731,3.05043,0.0056
-0.14999,40156.736,3.7002,1.4746,,0.0,5.8053,-0.55499,,,,,5.8053,-0.55501,0.0134723,3.09968,0.0056
-0.14999,40816.736,3.6915,1.5021,0.0,,5.9069,-0.55369,,,,,5.9069,-0.553689,0.0115803,3.24663,0.0056
-0.14999,41476.735,3.6832,1.5296,0.0,,6.0083,-0.55244,,,,,6.0083,-0.552448,0.011451,3.36424,0.0056
-0.15,42136.738,3.6753,1.5571,,,6.1094,-0.5513,,,,,6.1094,-0.551272,0.0120524,3.58692,0.0056
-0.14999,42796.735,3.6677,1.5846,0.27919,0.0,6.2104,-0.55012,,,,,6.2104,-0.550108,0.00993159,3.69641,0.0056
-0.14999,43456.736,3.6603,1.6121,,,6.3111,-0.54901,,,,,6.3111,-0.549026,0.0109421,3.8169,0.0056
-0.14999,44116.735,3.6534,1.6396,,0.0,6.4116,-0.54797,,,,,6.4116,-0.547974,0.0101754,4.12345,0.0056
-0.14999,44776.736,3.6467,1.6671,,,6.512,-0.54697,,,,,6.512,-0.546986,0.00970056,4.24474,0.0056
-0.14999,45436.734,3.6404,1.6946,0.0,,6.6122,-0.54602,,,,,6.6122,-0.545988,0.00964804,4.27488,0.0056
-0.14998,46096.736,3.634,1.7221,0.0,0.0,6.7122,-0.54503,3.634,1.7221,-4.39693,-0.228571,6.7122,-0.54505,0.00853228,4.25121,0.0056
-0.14998,46756.736,3.6276,1.7496,0.23136,0.0,6.812,-0.54407,,,,,6.812,-0.54409,0.00988627,4.22842,0.0056
-0.14999,47416.735,3.6211,1.7771,,0.0,6.9117,-0.54313,,,,,6.9117,-0.543134,0.00924985,4.23658,0.0056
-0.14999,48076.736,3.6145,1.8046,,0.0,7.0111,-0.54214,,,,,7.0111,-0.542181,0.00949577,4.22927,0.0056
-0.14999,48736.735,3.6079,1.8321,0.0,,7.1104,-0.54115,,,,,7.1104,-0.541189,0.0105892,4.16086,0.0056
-0.15,49396.734,3.6014,1.8595,0.0,,7.2095,-0.54021,,,,,7.2095,-0.540185,0.00927868,4.11977,0.0056
-0.14999,50056.736,3.5945,1.887,,0.0,7.3085,-0.53914,,,,,7.3085,-0.539139,0.0102991,4.02942,0.0056
-0.14999,50716.736,3.5874,1.9145,0.25175,,7.4072,-0.53807,,,,,7.4072,-0.538116,0.0099863,3.89626,0.0056
-0.14999,51376.736,3.5803,1.942,,,7.5058,-0.53701,,,,,7.5058,-0.537022,0.0115887,3.70457,0.0056
-0.14999,52036.734,3.573,1.9695,,0.0,7.6041,-0.53591,,,,,7.6041,-0.535903,0.0117414,3.60607,0.0056
-0.15001,52696.736,3.5652,1.997,,,7.7023,-0.53482,,,,,7.7023,-0.534746,0.0117639,3.49573,0.0056
-0.15,53356.737,3.557,2.0245,,3.3836,7.8002,-0.53355,,,,,7.8002,-0.533545,0.0109387,3.36429,0.0056
-0.15,54016.734,3.5487,2.052,,0.0,7.8979,-0.53231,,,,,7.8979,-0.532306,0.0128145,3.30768,0.0056
-0.14998,54676.734,3.5402,2.0795,,0.0,7.9953,-0.53096,,,,,7.9953,-0.53102,0.0138859,3.18271,0.0056
-0.15,55336.735,3.5317,2.107,,3.1799,8.0926,-0.52976,,,,,8.0926,-0.529724,0.0144574,3.14893,0.0056
-0.15,55996.734,3.5229,2.1345,0.0,,8.1895,-0.52844,,,,,8.1895,-0.528383,0.0154614,3.08137,0.0056
-0.15,56656.737,3.5138,2.162,0.0,0.0,8.2863,-0.52707,3.5138,2.162,-2.95684,-0.338222,8.2863,-0.527024,0.0156363,3.00933,0.0056
-0.14999,57316.736,3.5042,2.1895,0.0,,8.3828,-0.52559,,,,,8.3828,-0.525636,0.0146616,2.86606,0.0056
-0.15,57976.735,3.4943,2.217,,,8.479,-0.52415,3.4943,2.217,-2.6704,-0.374667,8.479,-0.524159,0.0166144,2.69547,0.0056
-0.15,58636.735,3.4842,2.2445,,,8.5749,-0.52263,,,,,8.5749,-0.522602,0.0167886,2.6206,0.0056
-0.14999,59296.736,3.4736,2.272,0.0,,8.6706,-0.52101,3.4736,2.272,-2.44792,-0.410667,8.6706,-0.520997,0.0179367,2.51842,0.0056
-0.15,59956.736,3.4624,2.2995,,0.0,8.766,-0.51936,3.4624,2.2995,-2.46989,-0.405,8.766,-0.519322,0.0176967,2.4427,0.0056
-0.14999,60616.736,3.451,2.327,0.0,,8.861,-0.51762,,,,,8.861,-0.517639,0.0167385,2.51757,0.0056
-0.15,61276.735,3.4403,2.3545,,,8.9557,-0.51605,,,,,8.9557,-0.516029,0.015058,2.84691,0.0056
-0.14999,61936.734,3.4309,2.382,0.0,,9.0502,-0.5146,,,,,9.0502,-0.514637,0.0137299,3.0659,0.0056
-0.14999,62596.735,3.4225,2.4095,,,9.1444,-0.51334,,,,,9.1444,-0.513373,0.0129262,3.40707,0.0056
-0.15,63256.736,3.4145,2.437,0.0,,9.2384,-0.51218,,,,,9.2384,-0.512172,0.012394,3.4217,0.0056
-0.14999,63916.735,3.4066,2.4645,,3.381,9.3322,-0.51096,,,,,9.3322,-0.510945,0.0133717,3.19087,0.0056
-0.15,64576.734,3.3979,2.492,0.0,,9.4258,-0.50969,3.3979,2.492,-2.97957,-0.336,9.4258,-0.509674,0.014806,3.00202,0.0056
-0.15,65236.737,3.388,2.5195,0.0,0.0,9.5191,-0.5082,,,,,9.5191,-0.508179,0.0172889,2.51842,0.0056
-0.14999,65896.735,3.3755,2.547,,,9.6121,-0.50629,,,,,9.6121,-0.506327,0.0215676,2.0275,0.0056
-0.14999,66556.736,3.3596,2.5745,,,9.7047,-0.50391,,,,,9.7047,-0.5039,0.0300269,1.49917,0.0056
-0.15,67216.735,3.3376,2.602,0.87287,,9.7968,-0.50064,3.3376,2.602,-1.07509,-0.933333,9.7968,-0.500593,0.0412076,1.0685,0.0056
-0.14998,67876.736,3.3073,2.6295,1.2213,,9.8881,-0.49603,3.3073,2.6295,-0.769943,-1.3,9.8881,-0.496059,0.0581903,0.79294,0.0056
-0.15,68536.736,3.266,2.657,1.651,0.58645,9.9785,-0.4899,3.266,2.657,-0.568182,-1.76,9.9785,-0.489884,0.0786845,0.596734,0.0056
-0.15,69196.735,3.2128,2.6845,2.1016,0.46596,10.068,-0.48192,3.2128,2.6845,-0.458793,-2.18,10.068,-0.481912,0.103233,0.479923,0.0056
-0.14999,69856.735,3.1432,2.7119,2.8028,0.35411,10.155,-0.47145,3.1432,2.7119,-0.347356,-2.88,10.155,-0.471449,0.135944,0.335804,0.0056
-0.14999,70516.737,3.0498,2.7394,3.8556,0.25443,10.24,-0.45744,3.0498,2.7394,-0.251574,-3.98,10.24,-0.457454,0.201346,0.268244,0.0056
-0.15,71176.736,2.9121,2.7669,6.1856,0.15978,10.322,-0.43682,2.9121,2.7669,-0.154615,-6.48,10.322,-0.436871,0.32237,0.166062,0.0056
-0.15,71836.737,2.5774,2.7944,16.751,0.060259,10.399,-0.38661,2.5774,2.7944,-0.0598093,-16.72,10.399,-0.386596,0.951666,0.0529306,0.0056
-0.15,71949.862,2.5,2.7991,16.171,0.061643,10.411,-0.375,2.5,2.7991,-0.0616246,-16.0154,,,,0.102182,0.0056

File: Cycle 970_charge.csv
Current(A),Test_Time(s),Voltage(V),Charge_Capacity(Ah),dV/dQ(V/Ah),dQ/dV(Ah/V),Charge_Energy(Wh),Power(W),Downsampled Voltage (V),Downsampled Capacity (Ah),dQ/dV from downsampled Voltage (Ah/V),dV/dQ from downsampled Cpacity (V/Ah),Downsampled Energy (Wh),Downsampled Power (W),dP/dE from downsampled Energy (W/Wh),dQ/dV from LEAN (Ah/V),Delta_V (V) in LEAN
0.15,1350.906,4.2001,0.06462,0.0,0.0,0.27207,0.63002,4.2001,0.06462,-0.00036912,-3042.16,,,,1.8168,0.0056
0.14997,76726.487,3.2991,0.08496,2.2127,0.45717,0.26924,0.49477,3.2991,0.08496,0.467371,2.14,0.26924,0.494778,0.0973159,3.72528,0.0056
0.14997,77326.486,3.347,0.10995,1.7632,0.57706,0.3523,0.50195,3.347,0.10995,0.589703,1.7,0.3523,0.501941,0.0757602,3.90011,0.0056
0.14998,77926.487,3.3832,0.13494,0.0,0.8037,0.43642,0.50741,3.3832,0.13494,0.901291,1.11333,0.43642,0.507402,0.0509617,4.2658,0.0056
0.14997,78526.487,3.4025,0.15993,0.0,,0.52124,0.51027,3.4025,0.15993,1.91257,0.526974,0.52124,0.510321,0.0230425,5.54579,0.0056
0.14998,79126.488,3.4129,0.18492,,,0.6064,0.51187,,,,,0.6064,0.511876,0.0153874,6.01193,0.0056
0.14999,79726.487,3.4207,0.20991,0.0,,0.69179,0.51307,,,,,0.69179,0.513063,0.0126883,6.77746,0.0056
0.14998,80326.487,3.4278,0.2349,0.0,0.0,0.77736,0.5141,,,,,0.77736,0.514087,0.0120894,7.01048,0.0056
0.14998,80926.488,3.4344,0.25989,0.0,0.0,0.8631,0.51509,,,,,0.8631,0.515087,0.00993377,7.12518,0.0056
0.14998,81526.487,3.4407,0.28487,,0.0,0.949,0.51604,,,,,0.949,0.516023,0.0106212,7.20143,0.0056
0.14997,82126.487,3.447,0.30986,,,1.0351,0.51695,,,,,1.0351,0.516957,0.010852,7.19333,0.0056
0.14998,82726.486,3.4536,0.33486,,,1.1213,0.51797,,,,,1.1213,0.517944,0.0116027,6.91003,0.0056
0.14998,83326.488,3.4605,0.35984,0.0,,1.2077,0.51901,,,,,1.2077,0.518999,0.0124941,6.68511,0.0056
0.14997,83926.487,3.4682,0.38483,0.0,0.0,1.2942,0.52013,,,,,1.2942,0.520143,0.0140649,6.48421,0.0056
0.14997,84526.487,3.4763,0.40982,0.32922,2.9511,1.381,0.52134,,,,,1.381,0.521382,0.0149774,6.09432,0.0056
0.14998,85126.488,3.4855,0.43482,0.0,0.0,1.468,0.52276,,,,,1.468,0.522757,0.0167114,5.88551,0.0056
0.14997,85726.487,3.4953,0.45981,,0.0,1.5552,0.52419,,,,,1.5552,0.524233,0.0171873,5.73674,0.0056
0.14998,86326.489,3.5057,0.4848,,0.0,1.6427,0.52578,3.5057,0.4848,2.35984,0.42381,1.6427,0.525756,0.0180052,5.71253,0.0056
0.14998,86926.487,3.5161,0.50979,0.41677,0.0,1.7305,0.52734,,,,,1.7305,0.527323,0.0178276,5.71253,0.0056
0.14998,87526.488,3.5265,0.53479,0.41261,2.4431,1.8185,0.5289,3.5265,0.53479,2.44065,0.410195,1.8185,0.528865,0.0184278,5.75284,0.0056
0.14997,88126.487,3.5365,0.55978,0.4032,2.487,1.9067,0.53037,,,,,1.9067,0.53037,0.0176356,5.82098,0.0056
0.14998,88726.489,3.5465,0.58477,0.39687,2.5404,1.9952,0.5319,3.5465,0.58477,2.6041,0.385208,1.9952,0.531875,0.0166206,5.8613,0.0056
0.14997,89326.487,3.5562,0.60977,0.38836,0.0,2.084,0.53332,,,,,2.084,0.533322,0.0163092,5.93568,0.0056
0.14997,89926.488,3.5655,0.63476,0.0,0.0,2.173,0.53472,,,,,2.173,0.534733,0.0157692,6.16256,0.0056
0.14999,90526.488,3.5743,0.65975,,,2.2622,0.53611,3.5743,0.65975,2.94816,0.339907,2.2622,0.536059,0.0139044,6.21088,0.0056
0.14998,91126.487,3.5826,0.68475,,,2.3517,0.53732,,,,,2.3517,0.537289,0.0144807,6.39372,0.0056
0.14997,91726.488,3.5905,0.70974,,,2.4413,0.53847,,,,,2.4413,0.53848,0.0129894,6.56856,0.0056
0.14997,92326.487,3.598,0.73473,0.0,0.0,2.5311,0.53959,3.598,0.73473,3.46879,0.288727,2.5311,0.539589,0.0124242,6.7514,0.0056
0.14997,92926.486,3.6049,0.75972,0.0,,2.6211,0.54063,,,,,2.6211,0.54065,0.0123882,7.12518,0.0056
0.14998,93526.487,3.6115,0.78472,0.0,3.8486,2.7113,0.54165,,,,,2.7113,0.541625,0.0103896,7.30988,0.0056
0.14998,94126.487,3.6176,0.80971,0.0,,2.8016,0.54257,,,,,2.8016,0.542541,0.0102187,7.41648,0.0056
0.14997,94726.487,3.6236,0.8347,0.0,,2.8921,0.54343,,,,,2.8921,0.543436,0.00917925,7.51508,0.0056
0.14998,95326.487,3.6292,0.85969,,0.0,2.9828,0.54431,,,,,2.9828,0.544286,0.0102646,7.67557,0.0056
0.14997,95926.489,3.6349,0.88469,,0.0,3.0735,0.54513,,,,,3.0735,0.545149,0.0096128,7.74195,0.0056
0.14997,96526.487,3.6404,0.90968,0.0,,3.1644,0.54595,,,,,3.1644,0.545985,0.00959973,7.7481,0.0056
0.14998,97126.487,3.6459,0.93467,0.22311,0.0,3.2555,0.54681,3.6459,0.93467,4.58247,0.220055,3.2555,0.546822,0.00949051,7.75806,0.0056
0.14998,97726.487,3.6515,0.95967,0.0,4.5263,3.3467,0.54765,,,,,3.3467,0.547645,0.00955949,7.76606,0.0056
0.14998,98326.487,3.6571,0.98466,0.0,,3.438,0.54849,,,,,3.438,0.548507,0.00873414,7.72399,0.0056
0.14998,98926.488,3.6628,1.0097,0.0,0.0,3.5295,0.54935,,,,,3.5295,0.549344,0.00945286,7.67557,0.0056
0.14998,99526.486,3.6686,1.0346,0.0,,3.6211,0.55022,,,,,3.6211,0.550223,0.0101152,7.51693,0.0056
0.14998,100126.487,3.6745,1.0596,0.0,,3.7129,0.5511,,,,,3.7129,0.551105,0.00977085,7.32413,0.0056
0.14998,100726.488,3.6808,1.0846,,,3.8048,0.55205,,,,,3.8048,0.552049,0.0112719,7.17536,0.0056
0.14997,101326.487,3.6872,1.1096,0.0,,3.8969,0.55297,,,,,3.8969,0.553006,0.0101449,7.06691,0.0056
0.14998,101926.488,3.6941,1.1346,,,3.9891,0.55404,3.6941,1.1346,3.70483,0.27,3.9891,0.554016,0.011304,6.90203,0.0056
0.14998,102526.488,3.7012,1.1596,,0.0,4.0815,0.55511,,,,,4.0815,0.555073,0.0111077,6.7675,0.0056
0.14998,103126.487,3.7084,1.1846,,0.0,4.1741,0.55619,,,,,4.1741,0.556191,0.0122775,6.62683,0.0056
0.14997,103726.487,3.716,1.2096,0.30429,0.0,4.2669,0.55729,,,,,4.2669,0.557326,0.0131499,6.38386,0.0056
0.14997,104326.486,3.724,1.2346,0.0,,4.3599,0.55849,,,,,4.3599,0.558522,0.0131592,6.37761,0.0056
0.14998,104926.488,3.7325,1.2596,,,4.4531,0.5598,,,,,4.4531,0.559763,0.014147,6.3454,0.0056
0.14998,105526.488,3.7409,1.2846,,,4.5464,0.56106,,,,,4.5464,0.561053,0.0130397,6.22698,0.0056
0.14997,106126.488,3.7495,1.3096,,,4.6401,0.56231,,,,,4.6401,0.562314,0.0128789,6.23694,0.0056
0.14997,106726.487,3.7581,1.3346,0.0,,4.7339,0.5636,3.7581,1.3346,2.8795,0.347333,4.7339,0.56361,0.0139749,6.1607,0.0056
0.14998,107326.488,3.7668,1.3596,0.34614,2.8747,4.8279,0.56494,,,,,4.8279,0.564915,0.0138413,6.14459,0.0056
0.14997,107926.486,3.7755,1.3845,0.0,0.0,4.9221,0.56621,,,,,4.9221,0.566192,0.0140304,6.1687,0.0056
0.14997,108526.488,3.784,1.4095,,0.0,5.0166,0.56749,,,,,5.0166,0.567489,0.0134563,6.28712,0.0056
0.14999,109126.488,3.7925,1.4345,,,5.1113,0.56884,,,,,5.1113,0.568778,0.0127364,6.26916,0.0056
0.14998,109726.488,3.8008,1.4595,,,5.2062,0.57004,,,,,5.2062,0.57002,0.0118843,6.30323,0.0056
0.14998,110326.487,3.8091,1.4845,,,5.3013,0.57129,,,,,5.3013,0.571262,0.013224,6.32743,0.0056
0.14998,110926.488,3.8172,1.5095,,3.0621,5.3966,0.5725,,,,,5.3966,0.5725,0.0133936,6.41978,0.0056
0.14998,111526.489,3.8253,1.5345,,0.0,5.4921,0.57372,,,,,5.4921,0.573707,0.0130785,6.43589,0.0056
0.14997,112126.488,3.8332,1.5595,0.0,0.0,5.5878,0.57487,,,,,5.5878,0.574885,0.0125,6.41793,0.0056
0.14997,112726.488,3.8412,1.5845,0.0,,5.6837,0.57606,,,,,5.6837,0.576079,0.0120355,6.43589,0.0056
0.14998,113326.486,3.8492,1.6095,,,5.7798,0.5773,,,,,5.7798,0.577281,0.0119656,6.41793,0.0056
0.14998,113926.488,3.8571,1.6345,,3.1289,5.8761,0.57849,,,,,5.8761,0.57849,0.0116989,6.43589,0.0056
0.14998,114526.486,3.8651,1.6595,,0.0,5.9726,0.57969,,,,,5.9726,0.579703,0.0131012,6.38571,0.0056
0.14997,115126.488,3.8732,1.6845,0.0,0.0,6.0693,0.58086,,,,,6.0693,0.580892,0.0103249,6.29336,0.0056
0.14998,115726.487,3.8814,1.7095,0.0,,6.1662,0.58213,,,,,6.1662,0.582132,0.0127572,6.31933,0.0056
0.14998,116326.487,3.8896,1.7344,0.0,,6.2633,0.58336,3.8896,1.7344,3.00649,0.332667,6.2633,0.583371,0.0119115,6.30137,0.0056
0.14998,116926.487,3.898,1.7594,0.0,,6.3606,0.58462,3.898,1.7594,3.01292,0.332,6.3606,0.584616,0.013591,6.32743,0.0056
0.14997,117526.489,3.9063,1.7844,0.3311,,6.4582,0.58583,3.9063,1.7844,3.0949,0.324,6.4582,0.585844,0.0125961,6.40983,0.0056
0.14998,118126.487,3.914,1.8094,0.0,,6.5559,0.58702,3.914,1.8094,3.38278,0.296121,6.5559,0.587006,0.0111914,6.7433,0.0056
0.14998,118726.488,3.9211,1.8344,,0.0,6.6538,0.58809,,,,,6.6538,0.588102,0.0106326,6.91013,0.0056
0.14997,119326.486,3.928,1.8594,0.0,,6.7519,0.58908,,,,,6.7519,0.589085,0.00996554,7.02659,0.0056
0.14997,119926.487,3.9345,1.8844,0.0,0.0,6.8501,0.59006,,,,,6.8501,0.590061,0.00995546,6.93424,0.0056
0.14998,120526.488,3.9414,1.9094,,0.0,6.9486,0.59113,,,,,6.9486,0.591105,0.0105548,6.79357,0.0056
0.14998,121126.488,3.9485,1.9344,,0.0,7.0471,0.5922,,,,,7.0471,0.592192,0.0116637,6.61873,0.0056
0.14997,121726.487,3.9561,1.9594,0.30521,,7.1459,0.5933,,,,,7.1459,0.59333,0.0117976,6.41793,0.0056
0.14998,122326.487,3.9646,1.9844,0.0,,7.2449,0.59461,,,,,7.2449,0.594595,0.0130482,6.13649,0.0056
0.14997,122926.487,3.9735,2.0094,0.0,,7.3441,0.59591,,,,,7.3441,0.595927,0.0146618,6.01007,0.0056
0.14997,123526.487,3.983,2.0344,,,7.4435,0.59733,,,,,7.4435,0.597332,0.0141255,5.87926,0.0056
0.14998,124126.488,3.9931,2.0594,0.0,,7.5432,0.59889,,,,,7.5432,0.598869,0.0144372,5.72863,0.0056
0.14998,124726.487,4.0038,2.0843,,,7.6431,0.60049,,,,,7.6431,0.600466,0.0161991,5.63628,0.0056
0.14998,125326.487,4.0146,2.1093,,0.0,7.7433,0.60211,4.0146,2.1093,2.40786,0.417143,7.7433,0.602069,0.0158355,5.59597,0.0056
0.14998,125926.489,4.0253,2.1343,0.0,,7.8438,0.60371,,,,,7.8438,0.603719,0.0163869,5.59597,0.0056
0.14998,126526.489,4.0361,2.1593,0.42892,0.0,7.9445,0.60533,,,,,7.9445,0.605323,0.0160259,5.65239,0.0056
0.14998,127126.488,4.0464,2.1843,0.4143,0.0,8.0455,0.60688,4.0464,2.1843,2.50313,0.4,8.0455,0.606884,0.0141678,5.87926,0.0056
0.14998,127726.488,4.0562,2.2093,0.3933,0.0,8.1468,0.60835,,,,,8.1468,0.608366,0.0147161,5.91958,0.0056
0.14998,128326.487,4.0656,2.2343,0.0,0.0,8.2483,0.60976,,,,,8.2483,0.609737,0.0128651,6.24123,0.0056
0.14998,128926.487,4.0737,2.2593,,0.0,8.35,0.61097,4.0737,2.2593,3.42616,0.294424,8.35,0.610961,0.0110708,6.91061,0.0056
0.14997,129526.488,4.08,2.2843,0.0,,8.4519,0.61188,,,,,8.4519,0.611886,0.00694126,8.01159,0.0056
0.14998,130126.486,4.084,2.3093,0.0,0.0,8.5539,0.61252,,,,,8.5539,0.61252,0.00411043,8.01159,0.0056
0.14998,130726.487,4.0868,2.3343,0.0,7.6583,8.656,0.61294,,,,,8.656,0.612939,0.00437463,6.4478,0.0056
0.14997,130966.487,4.0881,2.3443,0.0,0.0,8.6969,0.61309,4.0881,2.3443,9.09091,0.0996651,8.6969,0.613098,0.00246583,6.4478,0.0056