Folder: battery-analysis-project/Data/processed_data (part 3)

File: Cycle 295_discharge.csv
Current(A),Test_Time(s),Voltage(V),Discharge_Capacity(Ah),dV/dQ(V/Ah),dQ/dV(Ah/V),Discharge_Energy(Wh),Power(W),Downsampled Voltage (V),Downsampled Capacity (Ah),dQ/dV from downsampled Voltage (Ah/V),dV/dQ from downsampled Cpacity (V/Ah),Downsampled Energy (Wh),Downsampled Power (W),dP/dE from downsampled Energy (W/Wh),dQ/dV from LEAN (Ah/V),Delta_V (V) in LEAN
-0.15002,14329.463,4.0691,0.40005,,13.23,1.6392,-0.61045,,,,,1.6392,-0.610448,0.00276258,4.20696,0.0049
-0.15002,14989.464,4.0662,0.42756,0.0,,1.751,-0.61001,4.0662,0.42756,-6.25,-0.128571,1.751,-0.609997,0.00481747,5.12626,0.0049
-0.15002,15649.462,4.0618,0.45506,,,1.8628,-0.60935,4.0618,0.45506,-5.42417,-0.191429,1.8628,-0.609362,0.00684683,4.90582,0.0049
-0.15002,16309.462,4.0555,0.48256,0.0,,1.9745,-0.60841,,,,,1.9745,-0.608429,0.00921992,4.14071,0.0049
-0.15002,16969.463,4.0479,0.51007,0.0,,2.0859,-0.60727,,,,,2.0859,-0.607274,0.0115673,3.31461,0.0049
-0.15004,17629.464,4.0393,0.53757,0.0,0.0,2.1971,-0.60606,,,,,2.1971,-0.605987,0.0123566,3.11996,0.0049
-0.15002,18289.462,4.03,0.56507,0.0,0.0,2.3081,-0.60458,4.03,0.56507,-2.91126,-0.343778,2.3081,-0.604584,0.012629,2.86326,0.0049
-0.15003,18949.462,4.0199,0.59258,0.0,0.0,2.4188,-0.60311,,,,,2.4188,-0.603092,0.0133762,2.68674,0.0049
-0.15003,19609.463,4.0091,0.62008,0.0,0.0,2.5292,-0.60149,,,,,2.5292,-0.601465,0.0144126,2.51781,0.0049
-0.15002,20269.465,3.9979,0.64758,0.0,,2.6393,-0.59976,3.9979,0.64758,-2.44024,-0.409795,2.6393,-0.599763,0.0155618,2.41617,0.0049
-0.15002,20929.464,3.9863,0.67509,,0.0,2.7491,-0.59802,3.9863,0.67509,-2.34689,-0.427143,2.7491,-0.598048,0.0158345,2.4076,0.0049
-0.15002,21589.463,3.9751,0.70259,0.0,,2.8586,-0.59634,,,,,2.8586,-0.596321,0.0159379,2.44719,0.0049
-0.15002,22249.463,3.9643,0.7301,0.0,0.0,2.9678,-0.59472,,,,,2.9678,-0.594705,0.0140472,2.65572,0.0049
-0.15003,22909.462,3.954,0.7576,0.37319,2.7346,3.0767,-0.59322,3.954,0.7576,-2.83665,-0.352889,3.0767,-0.593203,0.0133425,2.82366,0.0049
-0.15003,23569.464,3.9444,0.7851,,,3.1853,-0.59178,,,,,3.1853,-0.59176,0.0121509,3.00876,0.0049
-0.15001,24229.464,3.9356,0.81261,0.0,0.0,3.2936,-0.59038,,,,,3.2936,-0.59041,0.0118063,3.15955,0.0049
-0.15002,24889.465,3.9274,0.84011,,0.0,3.4018,-0.58919,,,,,3.4018,-0.589201,0.0104193,3.5499,0.0049
-0.15002,25549.463,3.9201,0.86761,0.0,,3.5097,-0.58809,,,,,3.5097,-0.588083,0.0108844,3.92538,0.0049
-0.15003,26209.462,3.9131,0.89512,,,3.6174,-0.58708,,,,,3.6174,-0.587058,0.00939418,4.13485,0.0049
-0.15002,26869.463,3.9066,0.92262,0.0,,3.725,-0.58607,,,,,3.725,-0.586077,0.00816806,4.24937,0.0049
-0.15001,27529.465,3.9004,0.95012,0.0,0.0,3.8323,-0.5851,,,,,3.8323,-0.585161,0.00835134,4.35626,0.0049
-0.15002,28189.462,3.8943,0.97763,,0.0,3.9395,-0.58422,,,,,3.9395,-0.584199,0.0102648,4.29853,0.0049
-0.15001,28849.463,3.8878,1.0051,0.0,,4.0465,-0.58321,,,,,4.0465,-0.583218,0.00929517,4.1296,0.0049
-0.15002,29509.464,3.8808,1.0326,,0.0,4.1534,-0.5822,,,,,4.1534,-0.582186,0.0100413,3.62478,0.0049
-0.15002,30169.464,3.8729,1.0601,,,4.26,-0.58101,,,,,4.26,-0.581012,0.0110266,3.35421,0.0049
-0.15001,30829.464,3.8638,1.0876,0.32448,2.9106,4.3664,-0.57961,,,,,4.3664,-0.579646,0.012793,2.8814,0.0049
-0.15002,31489.463,3.8532,1.1151,0.38118,2.5256,4.4725,-0.57806,,,,,4.4725,-0.578066,0.016867,2.45577,0.0049
-0.15002,32149.464,3.8411,1.1427,0.0,0.0,4.5783,-0.57624,,,,,4.5783,-0.576249,0.0183299,2.19907,0.0049
-0.15002,32809.463,3.8288,1.1702,0.0,2.2623,4.6838,-0.5744,,,,,4.6838,-0.574379,0.0180082,2.27068,0.0049
-0.15002,33469.464,3.8169,1.1977,0.0,,4.7889,-0.57261,,,,,4.7889,-0.572588,0.0155855,2.48778,0.0049
-0.15002,34129.462,3.8059,1.2252,0.0,0.0,4.8938,-0.57096,3.8059,1.2252,-2.63523,-0.38,4.8938,-0.570967,0.0145819,2.60656,0.0049
-0.15002,34789.463,3.7958,1.2527,0.0,,4.9983,-0.56945,,,,,4.9983,-0.569454,0.0146583,2.75736,0.0049
-0.15001,35449.464,3.7863,1.2802,,0.0,5.1026,-0.56798,3.7863,1.2802,-2.95684,-0.338222,5.1026,-0.567974,0.0147657,2.9253,0.0049
-0.15002,36109.462,3.7771,1.3077,0.0,0.0,5.2066,-0.56664,,,,,5.2066,-0.566626,0.0128597,3.06321,0.0049
-0.15002,36769.464,3.7679,1.3352,,3.046,5.3103,-0.56526,,,,,5.3103,-0.565269,0.0123407,3.04934,0.0049
-0.15003,37429.464,3.759,1.3627,0.0,,5.4138,-0.56396,,,,,5.4138,-0.563927,0.0124163,3.0312,0.0049
-0.15002,38089.462,3.75,1.3902,0.0,0.0,5.5171,-0.56258,3.75,1.3902,-3.04878,-0.328,5.5171,-0.562597,0.0127102,3.09424,0.0049
-0.15003,38749.463,3.741,1.4177,,,5.6201,-0.56126,,,,,5.6201,-0.561257,0.0143578,3.02263,0.0049
-0.15002,39409.464,3.7321,1.4452,0.0,0.0,5.7229,-0.55989,,,,,5.7229,-0.559854,0.0137905,2.99161,0.0049
-0.15001,40069.463,3.723,1.4727,,,5.8254,-0.55849,,,,,5.8254,-0.558493,0.0126614,3.07179,0.0049
-0.15003,40729.464,3.7139,1.5002,0.32618,,5.9277,-0.5572,3.7139,1.5002,-3.08736,-0.324,5.9277,-0.557161,0.0131802,3.08036,0.0049
-0.15001,41389.463,3.705,1.5277,,0.0,6.0297,-0.55579,,,,,6.0297,-0.555791,0.0132704,3.12853,0.0049
-0.15002,42049.464,3.6961,1.5552,,,6.1315,-0.55449,,,,,6.1315,-0.554517,0.0126009,3.20014,0.0049
-0.15002,42709.462,3.6878,1.5827,0.0,,6.233,-0.55324,,,,,6.233,-0.553267,0.0121732,3.35852,0.0049
-0.15003,43369.462,3.68,1.6102,,,6.3343,-0.55211,,,,,6.3343,-0.552061,0.0125735,3.56273,0.0049
-0.15003,44029.462,3.6723,1.6377,0.0,0.0,6.4354,-0.55096,,,,,6.4354,-0.550914,0.0113156,3.65481,0.0049
-0.15002,44689.465,3.6649,1.6652,,,6.5363,-0.54981,,,,,6.5363,-0.549821,0.0105424,3.9125,0.0049
-0.15003,45349.463,3.6579,1.6927,,3.9518,6.637,-0.54879,3.6579,1.6927,-4.18561,-0.24,6.637,-0.548801,0.00953573,4.02697,0.0049
-0.15003,46009.465,3.6513,1.7202,0.0,,6.7376,-0.5478,,,,,6.7376,-0.547791,0.0098692,4.16488,0.0049
-0.15002,46669.464,3.6451,1.7477,,0.0,6.8379,-0.54684,,,,,6.8379,-0.546825,0.0100272,4.44402,0.0049
-0.15001,47329.462,3.6389,1.7752,,0.0,6.9381,-0.54587,,,,,6.9381,-0.545882,0.00920362,4.5242,0.0049
-0.15003,47989.464,3.6327,1.8027,0.0,,7.0381,-0.54501,,,,,7.0381,-0.544993,0.00804964,4.54036,0.0049
-0.15002,48649.464,3.6268,1.8302,0.0,,7.1379,-0.54409,,,,,7.1379,-0.544107,0.00919593,4.58853,0.0049
-0.15002,49309.462,3.6211,1.8577,,0.0,7.2376,-0.54324,,,,,7.2376,-0.543242,0.00868213,4.7413,0.0049
-0.15002,49969.464,3.6153,1.8853,0.0,0.0,7.3371,-0.54237,,,,,7.3371,-0.542361,0.0100816,4.68259,0.0049
-0.15002,50629.464,3.6094,1.9128,0.0,,7.4364,-0.54148,,,,,7.4364,-0.541448,0.00782928,4.59809,0.0049
-0.15002,51289.463,3.6034,1.9403,,4.5594,7.5356,-0.54058,,,,,7.5356,-0.54057,0.00865708,4.52322,0.0049
-0.15002,51949.462,3.597,1.9678,0.0,0.0,7.6346,-0.53962,,,,,7.6346,-0.539643,0.00912478,4.27078,0.0049
-0.15002,52609.463,3.5905,1.9953,,0.0,7.7335,-0.53865,,,,,7.7335,-0.53866,0.0101606,4.1019,0.0049
-0.15002,53269.463,3.5837,2.0228,0.24194,,7.8322,-0.53763,,,,,7.8322,-0.537637,0.0110256,4.00977,0.0049
-0.15002,53929.463,3.5769,2.0503,0.0,0.0,7.9306,-0.53661,,,,,7.9306,-0.536594,0.0110927,3.85471,0.0049
-0.15002,54589.462,3.5697,2.0778,0.0,,8.0289,-0.53553,3.5697,2.0778,-3.80759,-0.263429,8.0289,-0.535517,0.0101176,3.767,0.0049
-0.15002,55249.462,3.562,2.1053,0.0,0.0,8.127,-0.53437,3.562,2.1053,-3.53039,-0.283333,8.127,-0.534388,0.0116786,3.5446,0.0049
-0.15002,55909.464,3.5542,2.1328,,,8.2248,-0.5332,3.5542,2.1328,-3.44381,-0.290424,8.2248,-0.533207,0.0113379,3.46541,0.0049
-0.15003,56569.463,3.546,2.1603,0.0,,8.3225,-0.53201,3.546,2.1603,-3.24785,-0.308,8.3225,-0.531992,0.013436,3.25688,0.0049
-0.15002,57229.462,3.5376,2.1878,0.0,,8.4199,-0.53071,,,,,8.4199,-0.530699,0.0133225,3.17769,0.0049
-0.15002,57889.462,3.5288,2.2153,0.0,,8.5171,-0.52939,,,,,8.5171,-0.529393,0.0134807,3.19156,0.0049
-0.15002,58549.464,3.5201,2.2428,0.0,0.0,8.614,-0.52809,,,,,8.614,-0.528062,0.0125252,3.1371,0.0049
-0.15002,59209.462,3.5112,2.2703,,0.0,8.7107,-0.52675,,,,,8.7107,-0.526742,0.0131622,3.1701,0.0049
-0.15002,59869.463,3.5023,2.2978,,,8.8071,-0.52542,3.5023,2.2978,-3.04878,-0.328,8.8071,-0.525436,0.0137382,3.00876,0.0049
-0.15003,60529.464,3.4931,2.3253,0.33168,2.9468,8.9033,-0.52407,,,,,8.9033,-0.524066,0.0150628,2.90384,0.0049
-0.15002,61189.462,3.4835,2.3528,0.35352,,8.9993,-0.52259,,,,,8.9993,-0.522578,0.014964,2.70389,0.0049
-0.15002,61849.462,3.4729,2.3803,0.37906,2.5903,9.095,-0.521,,,,,9.095,-0.521007,0.0164378,2.54452,0.0049
-0.15002,62509.463,3.4619,2.4078,,,9.1903,-0.51935,3.4619,2.4078,-2.44193,-0.41,9.1903,-0.519363,0.0175231,2.48778,0.0049
-0.15002,63169.462,3.4507,2.4353,0.0,0.0,9.2854,-0.51767,,,,,9.2854,-0.517649,0.018835,2.35844,0.0049
-0.15002,63829.464,3.4386,2.4628,0.0,0.0,9.3801,-0.51586,3.4386,2.4628,-2.38551,-0.419524,9.3801,-0.515853,0.0189733,2.41518,0.0049
-0.15002,64489.464,3.4278,2.4903,0.0,2.65,9.4745,-0.51424,,,,,9.4745,-0.514255,0.0157673,2.94344,0.0049
-0.15002,65149.463,3.4195,2.5178,,0.0,9.5687,-0.51299,,,,,9.5687,-0.513012,0.01253,3.56377,0.0049
-0.15001,65809.463,3.4122,2.5453,0.0,,9.6627,-0.51186,,,,,9.6627,-0.511894,0.0113133,3.75936,0.0049
-0.15002,66469.463,3.4051,2.5728,,0.0,9.7564,-0.51083,,,,,9.7564,-0.510818,0.0125106,3.6782,0.0049
-0.15001,67129.462,3.3975,2.6003,,3.6088,9.85,-0.50966,,,,,9.85,-0.509697,0.0122057,3.5103,0.0049
-0.15001,67789.463,3.389,2.6278,,,9.9433,-0.50838,,,,,9.9433,-0.50841,0.0142548,3.08036,0.0049
-0.15001,68449.462,3.3793,2.6554,0.0,,10.036,-0.50693,,,,,10.036,-0.506976,0.0162785,2.6247,0.0049
-0.15002,69109.462,3.3677,2.6829,,2.1855,10.129,-0.50522,,,,,10.129,-0.505208,0.0218926,2.1509,0.0049
-0.15002,69769.462,3.3524,2.7104,0.58165,1.6125,10.222,-0.50293,,,,,10.222,-0.502918,0.02858,1.59791,0.0049
-0.15001,70429.462,3.3299,2.7379,,,10.313,-0.49952,3.3299,2.7379,-1.01031,-0.99,10.313,-0.499538,0.0431866,1.05781,0.0049
-0.15001,71089.462,3.2978,2.7654,,0.7551,10.405,-0.4947,3.2978,2.7654,-0.746601,-1.34,10.405,-0.494733,0.0609927,0.712359,0.0049
-0.15001,71749.463,3.2529,2.7929,1.8801,,10.495,-0.48797,3.2529,2.7929,-0.515573,-1.94,10.495,-0.487992,0.0914831,0.513394,0.0049
-0.15002,72409.463,3.1904,2.8204,2.5173,0.3906,10.583,-0.47862,3.1904,2.8204,-0.38208,-2.62,10.583,-0.478591,0.122158,0.376471,0.0049
-0.15002,73069.464,3.1076,2.8479,3.3372,0.29055,10.67,-0.4662,3.1076,2.8479,-0.285882,-3.5,10.67,-0.466181,0.162446,0.287719,0.0049
-0.15002,73729.462,2.9913,2.8754,5.0964,0.19314,10.754,-0.44875,2.9913,2.8754,-0.191847,-5.22,10.754,-0.448772,0.26265,0.194653,0.0049
-0.15002,74389.464,2.7657,2.9029,16.693,0.056148,10.834,-0.41491,2.7657,2.9029,-0.0576114,-17.9,10.834,-0.413922,0.945847,0.0620436,0.0049
-0.15048,74681.365,2.4999,2.915,20.512,0.048667,10.866,-0.37618,2.4999,2.915,0.0,,,,,,0.0049

File: Cycle 520_charge.csv
Current(A),Test_Time(s),Voltage(V),Charge_Capacity(Ah),dV/dQ(V/Ah),dQ/dV(Ah/V),Charge_Energy(Wh),Power(W),Downsampled Voltage (V),Downsampled Capacity (Ah),dQ/dV from downsampled Voltage (Ah/V),dV/dQ from downsampled Cpacity (V/Ah),Downsampled Energy (Wh),Downsampled Power (W),dP/dE from downsampled Energy (W/Wh),dQ/dV from LEAN (Ah/V),Delta_V (V) in LEAN
0.14999,977.665,4.2037,0.0292,-5.0442,-0.13021,0.12334,0.63051,4.2037,0.0292,-0.000707315,-1754.37,0.12334,0.594992,2.24935,,0.0049
0.14999,77774.423,3.1745,0.05248,3.4711,0.29576,0.16038,0.47614,3.1745,0.05248,0.299594,3.34,0.16038,0.476107,0.156711,3.13666,0.0049
0.14999,78434.422,3.2523,0.07997,2.5152,0.40062,0.24877,0.48781,3.2523,0.07997,0.416898,2.4,0.24877,0.487786,0.111739,3.25474,0.0049
0.14998,79094.423,3.3114,0.10746,1.993,0.50972,0.33902,0.49664,3.3114,0.10746,0.531915,1.88,0.33902,0.49665,0.0877178,3.38222,0.0049
0.14998,79754.422,3.3582,0.13495,1.5316,0.66846,0.43072,0.50366,3.3582,0.13495,0.676664,1.48,0.43072,0.503676,0.06384,3.6256,0.0049
0.14998,80414.422,3.3862,0.16244,0.0,,0.52347,0.50786,3.3862,0.16244,1.57094,0.656248,0.52347,0.507853,0.0283179,4.60338,0.0049
0.14998,81074.423,3.3996,0.18993,,,0.61675,0.50987,,,,,0.61675,0.509863,0.0177428,5.23874,0.0049
0.14998,81734.422,3.4092,0.21741,,,0.71034,0.51131,,,,,0.71034,0.511322,0.0145127,5.8056,0.0049
0.14998,82394.423,3.4176,0.2449,0.0,0.0,0.80416,0.51257,3.4176,0.2449,3.46624,0.288942,0.80416,0.5126,0.0132231,6.28502,0.0049
0.14998,83054.423,3.4252,0.27239,0.0,,0.89821,0.51371,,,,,0.89821,0.513743,0.0111989,6.58739,0.0049
0.14998,83714.422,3.4324,0.29987,,0.0,0.99246,0.51479,,,,,0.99246,0.514806,0.011087,6.69594,0.0049
0.14999,84374.422,3.4396,0.32736,0.0,0.0,1.0869,0.51591,,,,,1.0869,0.515879,0.0105397,6.58739,0.0049
0.14998,85034.422,3.447,0.35485,,,1.1815,0.51698,,,,,1.1815,0.516983,0.0119722,6.45038,0.0049
0.14998,85694.422,3.4548,0.38234,,0.0,1.2764,0.51815,,,,,1.2764,0.51813,0.0126836,6.14801,0.0049
0.14998,86354.422,3.4633,0.40982,,3.1412,1.3715,0.51943,,,,,1.3715,0.519422,0.015423,5.95202,0.0049
0.14998,87014.423,3.4728,0.43731,,,1.4668,0.52085,,,,,1.4668,0.520873,0.0150015,5.60009,0.0049
0.14998,87674.423,3.4834,0.4648,,2.5559,1.5624,0.52244,,,,,1.5624,0.522457,0.0170096,5.31666,0.0049
0.14997,88334.423,3.4946,0.49229,0.0,,1.6583,0.52409,,,,,1.6583,0.524107,0.016923,5.33559,0.0049
0.14998,88994.422,3.5058,0.51978,,0.0,1.7545,0.5258,3.5058,0.51978,2.46989,0.405,1.7545,0.52579,0.0173179,5.42521,0.0049
0.14997,89654.423,3.5168,0.54727,,,1.8511,0.52741,,,,,1.8511,0.527459,0.0174428,5.31666,0.0049
0.14998,90314.422,3.5279,0.57476,0.40159,0.0,1.9479,0.52911,,,,,1.9479,0.529124,0.0167554,5.31666,0.0049
0.14998,90974.423,3.5389,0.60225,,2.5325,2.045,0.53076,,,,,2.045,0.530751,0.0162783,5.45367,0.0049
0.14998,91634.422,3.5492,0.62974,,,2.1424,0.53231,,,,,2.1424,0.532305,0.0163661,5.60961,0.0049
0.14998,92294.423,3.5588,0.65723,,2.8364,2.2401,0.53375,,,,,2.2401,0.533772,0.0146847,5.7371,0.0049
0.14997,92954.422,3.5684,0.68471,0.34355,2.9437,2.3381,0.53515,,,,,2.3381,0.535157,0.0136298,5.86458,0.0049
0.14998,93614.422,3.5773,0.7122,,0.0,2.4363,0.53652,,,,,2.4363,0.536517,0.012911,6.05839,0.0049
0.14999,94274.422,3.5856,0.73969,0.0,,2.5348,0.5378,,,,,2.5348,0.537748,0.0128386,6.23545,0.0049
0.14999,94934.422,3.593,0.76718,,,2.6334,0.53891,,,,,2.6334,0.5389,0.0115754,6.60632,0.0049
0.14998,95594.423,3.6002,0.79467,0.0,,2.7323,0.53996,,,,,2.7323,0.539996,0.0104092,6.78338,0.0049
0.14997,96254.423,3.607,0.82216,0.0,0.0,2.8314,0.54094,,,,,2.8314,0.540993,0.0095597,6.97719,0.0049
0.14998,96914.422,3.6137,0.84965,,4.2293,2.9306,0.54198,,,,,2.9306,0.541973,0.00873996,7.10467,0.0049
0.14998,97574.423,3.62,0.87714,,0.0,3.03,0.54293,,,,,3.03,0.542912,0.00992649,7.2628,0.0049
0.14998,98234.422,3.6259,0.90463,0.0,0.0,3.1296,0.54381,3.6259,0.90463,4.66703,0.214349,3.1296,0.543841,0.00883333,7.43767,0.0049
0.14998,98894.422,3.6318,0.93211,,0.0,3.2294,0.5447,,,,,3.2294,0.544719,0.00871949,7.51559,0.0049
0.14999,99554.422,3.6378,0.9596,0.0,0.0,3.3293,0.54563,3.6378,0.9596,4.67641,0.214594,3.3293,0.545591,0.00854018,7.59362,0.0049
0.14998,100214.422,3.6436,0.98709,0.0,4.7051,3.4294,0.54647,,,,,3.4294,0.546451,0.0090781,7.67371,0.0049
0.14998,100874.423,3.6493,1.0146,,0.0,3.5296,0.54732,,,,,3.5296,0.547337,0.00902687,7.61473,0.0049
0.14998,101534.422,3.6552,1.0421,,,3.63,0.54821,,,,,3.63,0.548221,0.00870668,7.36917,0.0049
0.14999,102194.422,3.6613,1.0696,0.0,,3.7306,0.54916,,,,,3.7306,0.549154,0.00928076,7.28173,0.0049
0.14999,102854.422,3.6677,1.097,,,3.8313,0.55012,,,,,3.8313,0.550089,0.00842581,7.15425,0.0049
0.14998,103514.422,3.6742,1.1245,0.0,,3.9322,0.55106,3.6742,1.1245,4.2279,0.237143,3.9322,0.551026,0.00980795,7.03617,0.0049
0.14998,104174.422,3.6809,1.152,0.0,0.0,4.0333,0.55206,,,,,4.0333,0.552062,0.0105567,6.79279,0.0049
0.14998,104834.422,3.6878,1.1795,0.25317,,4.1346,0.5531,,,,,4.1346,0.553111,0.00995363,6.61584,0.0049
0.14998,105494.422,3.6952,1.207,,0.0,4.2361,0.55421,,,,,4.2361,0.554228,0.0113002,6.39139,0.0049
0.14998,106154.422,3.703,1.2345,,0.0,4.3377,0.55538,,,,,4.3377,0.555396,0.0110658,6.32289,0.0049
0.14999,106814.422,3.7113,1.262,0.0,,4.4397,0.55666,,,,,4.4397,0.55662,0.012583,6.10796,0.0049
0.14997,107474.422,3.7198,1.2895,0.0,,4.5418,0.55786,,,,,4.5418,0.557885,0.0129383,5.95202,0.0049
0.14998,108134.422,3.7286,1.317,,3.0711,4.6442,0.55922,,,,,4.6442,0.559222,0.0139785,5.93309,0.0049
0.14998,108794.422,3.7377,1.3445,0.33193,,4.7468,0.56058,3.7377,1.3445,2.99602,0.333888,4.7468,0.560595,0.0133569,5.86458,0.0049
0.14997,109454.422,3.7472,1.3719,0.0,0.0,4.8497,0.56197,,,,,4.8497,0.562002,0.0133559,5.75603,0.0049
0.14999,110114.422,3.7566,1.3994,0.0,,4.9528,0.56345,,,,,4.9528,0.563409,0.0135855,5.7371,0.0049
0.14998,110774.423,3.7659,1.4269,,,5.0562,0.56481,3.7659,1.4269,2.94199,0.34,5.0562,0.564821,0.0141732,5.7371,0.0049
0.14998,111434.423,3.7754,1.4544,0.0,0.0,5.1599,0.56623,,,,,5.1599,0.56623,0.0136774,5.82454,0.0049
0.14998,112094.423,3.7848,1.4819,0.0,,5.2638,0.56764,,,,,5.2638,0.567634,0.0133679,5.91416,0.0049
0.14999,112754.422,3.7938,1.5094,,3.0239,5.3679,0.56903,3.7938,1.5094,2.97957,0.336,5.3679,0.568997,0.013429,5.84347,0.0049
0.14998,113414.422,3.8029,1.5369,0.0,,5.4723,0.57036,,,,,5.4723,0.570361,0.0130732,5.86458,0.0049
0.14998,114074.422,3.812,1.5644,,0.0,5.577,0.57172,,,,,5.577,0.571724,0.0130916,5.81501,0.0049
0.14998,114734.422,3.8213,1.5919,0.0,,5.6819,0.57312,,,,,5.6819,0.573115,0.0125339,5.81501,0.0049
0.14998,115394.423,3.8307,1.6193,,0.0,5.7871,0.57453,,,,,5.7871,0.574519,0.0125826,5.8056,0.0049
0.14999,116054.422,3.8401,1.6468,0.0,,5.8925,0.57598,,,,,5.8925,0.575953,0.0138318,5.7371,0.0049
0.14999,116714.422,3.8494,1.6743,,,5.9982,0.57737,,,,,5.9982,0.577353,0.0138804,5.66859,0.0049
0.14998,117374.422,3.859,1.7018,,2.8777,6.1042,0.57877,,,,,6.1042,0.578789,0.0133166,5.7371,0.0049
0.14998,118034.422,3.8687,1.7293,0.3481,2.8794,6.2104,0.58023,,,,,6.2104,0.58021,0.0130001,5.7371,0.0049
0.14997,118694.422,3.8782,1.7568,0.34688,,6.3168,0.58161,3.8782,1.7568,2.8795,0.347333,6.3168,0.581621,0.0136268,5.68753,0.0049
0.14999,119354.423,3.8873,1.7843,,0.0,6.4236,0.58306,,,,,6.4236,0.58305,0.0132086,5.88352,0.0049
0.14999,120014.423,3.8963,1.8118,0.0,,6.5306,0.58441,,,,,6.5306,0.584383,0.0115613,6.18588,0.0049
0.14998,120674.422,3.9046,1.8393,,,6.6378,0.58561,,,,,6.6378,0.585607,0.0104465,6.41033,0.0049
0.14998,121334.422,3.9118,1.8667,0.0,,6.7452,0.58669,,,,,6.7452,0.586662,0.00907069,6.9298,0.0049
0.14999,121994.422,3.9181,1.8942,0.24184,,6.8528,0.58768,3.9181,1.8942,4.48718,0.222857,6.8528,0.587653,0.00953451,7.09526,0.0049
0.14997,122654.423,3.9243,1.9217,,,6.9606,0.58853,,,,,6.9606,0.588574,0.00804196,7.18488,0.0049
0.14997,123314.422,3.9306,1.9492,0.0,,7.0686,0.58947,,,,,7.0686,0.589533,0.0087032,6.9983,0.0049
0.14998,123974.423,3.9376,1.9767,,0.0,7.1767,0.59056,,,,,7.1767,0.590552,0.00952526,6.73381,0.0049
0.14999,124634.423,3.9451,2.0042,0.0,0.0,7.2851,0.59173,,,,,7.2851,0.591677,0.0121023,6.29443,0.0049
0.14998,125294.423,3.9531,2.0317,,0.0,7.3936,0.59289,,,,,7.3936,0.592906,0.0124779,6.10796,0.0049
0.14998,125954.422,3.962,2.0592,,0.0,7.5024,0.59422,3.962,2.0592,2.97957,0.336,7.5024,0.594246,0.0129053,5.84565,0.0049
0.14998,126614.422,3.9718,2.0867,0.0,,7.6114,0.59569,,,,,7.6114,0.595674,0.0137423,5.56004,0.0049
0.14998,127274.422,3.9823,2.1141,0.0,,7.7208,0.59727,3.9823,2.1141,2.53246,0.395,7.7208,0.597248,0.0147057,5.38516,0.0049
0.14998,127934.422,3.9934,2.1416,,0.0,7.8304,0.59893,,,,,7.8304,0.598942,0.0162599,5.23874,0.0049
0.14998,128594.422,4.0049,2.1691,0.0,,7.9403,0.60065,,,,,7.9403,0.600669,0.0168555,5.17024,0.0049
0.14998,129254.422,4.0169,2.1966,0.0,,8.0506,0.60245,,,,,8.0506,0.602465,0.0156958,5.12067,0.0049
0.14998,129914.422,4.0288,2.2241,0.42934,2.3488,8.1612,0.60424,,,,,8.1612,0.604234,0.015346,5.23874,0.0049
0.14998,130574.422,4.04,2.2516,0.0,,8.2721,0.60592,,,,,8.2721,0.605944,0.0147915,5.25768,0.0049
0.14998,131234.422,4.0507,2.2791,,0.0,8.3833,0.60752,,,,,8.3833,0.60752,0.0133571,5.4726,0.0049
0.14999,131894.422,4.0609,2.3066,,0.0,8.4948,0.60909,,,,,8.4948,0.609049,0.0125637,5.86458,0.0049
0.14997,132554.422,4.0696,2.3341,0.0,,8.6065,0.61032,,,,,8.6065,0.610379,0.0108403,6.41755,0.0049
0.14997,133214.422,4.0769,2.3615,,,8.7185,0.61141,,,,,8.7185,0.611467,0.00771516,7.04215,0.0049
0.14998,133874.422,4.0818,2.389,,,8.8306,0.61219,4.0818,2.389,7.30799,0.140714,8.8306,0.61221,0.00498537,5.9207,0.0049
0.14998,134294.422,4.084,2.4065,0.0,,8.9021,0.61252,4.084,2.4065,7.95455,0.110714,8.9021,0.612488,0.00431235,5.9207,0.0049