Folder: battery-analysis-project/Data/processed_data

Note: README.md
# ğŸ”‹ battery-analysis-project  
ğŸ‘¤ **Author**: Jimei (May) Cui  
ğŸ”— [LinkedIn](https://www.linkedin.com/in/jimei-cui/) | [GitHub](https://github.com/May-Cui/)  

ğŸ‘¥ **Supervisors**: Kawa Manmi, Ferran Brosa Planella  

---

## ğŸ“– Project Overview  
This repository contains the code, documentation, and outputs from my **Faraday Undergraduate Summer Experience (FUSE) 2025** internship at the University of Warwick.  

Implemented methods:  
- **dQ/dV** â€” Differential Capacity Analysis  
- **dV/dQ** â€” Differential Voltage Analysis  
- **DCS** â€” Differential Coulometry Spectroscopy  
- **dP/dE** â€” Differential Powerâ€“Energy Analysis  
- **LEAN** â€” Linear Energy Analysis of Noise (extension of DCS, used in final comparisons)  

---

## ğŸ¯ Outputs  

### ğŸ”¹ Poster (Main Deliverable)  
- [Poster PDF](Docs/poster_final.pdf) â€” official version  
- ![Poster preview](Docs/poster_final.jpg)

### ğŸ”¹ Additional Outputs  
- **Figures** â€” Poster-ready plots in `Plots/` (`.png`)  
- **Analysis Pipelines** â€” Reproducible implementations of dQ/dV, dV/dQ, dP/dE, DCS, and LEAN (`Notebooks/`)  
- **Documentation** â€” Weekly log (`Docs/progress-log.md`), glossary (`Docs/battery-terminology.md`), and method notes (not included in this repo)  

---

## ğŸ§­ Methodological Notes  

1. **From DCS to LEAN**  
   - Began with **Differential Coulometry Spectroscopy (DCS)** following BioLogic [Application Note #57](https://www.biologic.net/documents/dcs-battery-application-note-57/).  
   - Literature review introduced the **LEAN method** (Feng et al., 2020, [link](https://www.sciencedirect.com/science/article/pii/S2590116820300084)), an *extended version* of DCS.  
   - Final comparative study focused on **LEAN, dQ/dV, dV/dQ, and dP/dE**, as LEAN provided more stable cross-cell outputs.  

2. **Interpolation vs. Downsampling**  
   - Both strategies were tested:  
     - **Interpolation** useful for sparse/uneven data but may â€œcreateâ€ points.  
     - **Downsampling** preserves fidelity and is preferred in modern practice.  
   - Poster results used the **downsampling + LEAN route**.  

   Reproducibility:  
   - `40_pipeline_all_methods.ipynb` â†’ **main notebook** containing the final unified pipeline (downsampling + LEAN, used in poster).  
   - `30_pipeline_interpolation_dcs.ipynb` â†’ interpolation + DCS pipeline (kept for exploration).  
   - Earlier notebooks are exploratory and interpolation-based only.  

---

## ğŸ“‚ Project Folder Structure  

- **Data/**  
  - `raw_data/` â€” Original downloaded datasets (not uploaded)  
  - `processed_data/` â€” Downsampled / smoothed outputs  
  - `interp_data/` â€” Interpolation-based outputs  
  - `monotonic_segments/` â€” Extracted monotonic Qâ€“V segments  
  - `processed_cache/` â€” Cached CSVs  

- **Notebooks/**  
  - `10_extract_qv_from_raw_216.ipynb`  
  - `20_dqdv_dvdq_borealis.ipynb`  
  - `30_pipeline_interpolation_dcs.ipynb`  
  - `40_pipeline_all_methods.ipynb` (**key notebook â€”

File: cycle1_charge.csv
Charge_Capacity(Ah),Voltage_sm (V),Interpolated dV/dQ (V/Ah),Interpolated dQ/dV (Ah/V)
0.0500434,3.17487,3.45486,0.301115
0.0590908,3.20317,3.04758,0.335533
0.0681382,3.22862,2.75673,0.368667
0.0771856,3.25191,2.51566,0.397189
0.086233,3.27331,2.35442,0.434225
0.0952803,3.29296,2.14172,0.474905
0.104328,3.3111,1.90257,0.506457
0.113375,3.32807,0.799017,0.547098
0.122423,3.34367,2.24279,0.591327
0.13147,3.35798,-0.720916,0.629664
0.140517,3.37016,0.450275,0.738309
0.149565,3.37969,-0.121991,1.47525
0.158612,3.38681,0.647098,0.712152
0.167659,3.39241,-1.10886,-0.430682
0.176707,3.39703,-1.75489,1.19724
0.185754,3.40089,-1.58428,3.9658
0.194802,3.40419,-0.978209,6.15348
0.203849,3.40714,-0.317838,6.03875
0.212896,3.40995,0.016293,1.92918
0.221944,3.41295,0.0216625,0.015025
0.230991,3.41531,0.457501,1.20645
0.240039,3.41804,0.189719,4.5762
0.249086,3.42093,-0.00144255,1.43264
0.258133,3.42328,0.0792797,0.0117217
0.267181,3.42588,0.399271,1.8897
0.276228,3.42806,0.135876,5.28139
0.285276,3.43049,-0.00657293,0.62393
0.294323,3.43265,-0.0357492,-0.450653
0.30337,3.43513,0.191356,2.84637
0.312418,3.43753,0.00763333,-0.0922599
0.321465,3.43981,3.54615e-05,3.89286
0.330513,3.44198,-1.39839e-05,-0.170301
0.33956,3.44462,0.00174548,0.596264
0.348607,3.44695,0.00957741,4.4304
0.357655,3.44933,0.00330061,4.47247
0.366702,3.45191,0.0214304,-0.0210545
0.375749,3.45463,0.22014,2.78737
0.384797,3.45726,-0.034486,-0.422214
0.393844,3.4599,-0.0205788,0.0562283
0.402892,3.46289,-0.0811136,1.98686
0.411939,3.46618,-0.0962396,4.33833
0.420986,3.46931,-0.0384865,4.08256
0.430034,3.4721,-0.0469467,-0.587056
0.439081,3.47558,0.25143,2.06312
0.448129,3.47901,0.0244465,1.18152
0.457176,3.48242,0.0451177,-0.289585
0.466223,3.48639,0.468996,1.67819
0.475271,3.48989,0.0444763,2.84863
0.484318,3.49348,0.215794,-0.296845
0.493366,3.49741,0.856933,1.84657
0.502413,3.50106,0.925897,3.87901
0.51146,3.50464,0.403464,2.39402
0.520508,3.50825,-0.0272512,-0.168102
0.529555,3.51209,0.428155,2.585
0.538603,3.51576,0.221167,1.33059
0.54765,3.51933,0.0569117,0.34494
0.556697,3.52307,0.495656,3.01588
0.565745,3.52677,0.037338,0.228036
0.574792,3.53008,0.171267,1.0719
0.58384,3.53373,0.496315,3.12894
0.592887,3.53748,-0.0515739,-0.326784
0.601934,3.54077,0.291089,1.87231
0.610982,3.54436,0.410288,2.75267
0.620029,3.54793,-0.0180303,-0.458054
0.629076,3.5512,0.0256809,1.61025
0.638124,3.55444,0.287235,2.12721
0.647171,3.55776,-0.0463834,-0.713583
0.656219,3.56092,-0.00458728,1.74943
0.665266,3.56381,0.00160977,0.260071
0.674313,3.56655,0.0483515,0.858524
0.683361,3.56951,0.13902,0.137956
0.692408,3.5726,0.24687,-1.23993
0.701456,3.57574,0.345157,-2.61342
0.710503,3.57884,0.407133,-3.32081
0.71955,3.5818,0.406055,-2.70039
0.728598,3.58454,0.315176,-0.0904549
0.737645,3.58704,0.137805,4.06079
0.746693,3.58957,0.0062338,4.54176
0.75574,3.59221,-0.0202705,-0.294595
0.764787,3.59481,0.33022,0.150765
0.773835,3.59748,0.302424,3.94552
0.782882,3.59963,0.0136455,4.3581
0.79193,3.60174,0.0113414,-0.119065
0.800977,3.60388,0.133949,2.05267
0.810024,3.60626,-0.0318006,-0.498038
0.819072,3.60848,-0.000842125,-0.0191861
0.828119,3.61055,0.00555353,0.81358
0.837166,3.61249,0.0122731,4.26556
0.846214,3.61444,0.0134272,8.14726
0.855261,3.61648,0.0102302,10.1074
0.864309,3.61865,0.00389689,7.79488
0.873356,3.621,-0.000667181,0.203948
0.882403,3.62291,-0.0193729,0.0848135
0.891451,3.62522,0.317078,0.707874
0.900498,3.62739,0.293032,5.23452
0.909546,3.62919,0.0650415,6.96116
0.918593,3.63077,-0.000512238,0.0763668
0.92764,3.6328,-0.0161829,0.050166
0.936688,3.63494,0.335688,0.042953
0.945735,3.63704,0.465716,0.104669
0.954783,3.63894,0.354989,0.0909143
0.96383,3.64074,0.145534,0.0407722
0.972877,3.64253,-0.0190854,-0.00610974
0.981925,3.64434,0.246735,-0.0233385
0.990972,3.64617,0.535827,-0.941484
1.00002,3.64804,0.616976,-2.37785
1.00907,3.64997,0.552974,-3.42366
1.01811,3.65196,0.406612,-3.17011
1.02716,3.65404,0.240683,-0.708442
1.03621,3.65619,0.11158,4.24011
1.04526,3.65828,0.0325717,7.70658
1.0543,3.66011,-0.000887438,3.9707
1.06335,3.66222,0.00206,-0.05445
1.0724,3.6642,0.159165,-0.121106
1.08145,3.66671,0.344515,2.94338
1.09049,3.66872,0.16045,6.68779
1.09954,3.67045,-0.0040539,3.58439
1.10859,3.67257,9.03533e-05,-0.0173418
1.11764,3.67471,0.00852385,-0.37526
1.12668,3.67682,0.0555812,-1.61425
1.13573,3.67896,0.129119,-3.13605
1.14478,3.68115,0.214647,-4.64605
1.15383,3.68339,0.297677,-5.84963
1.16287,3.68569,0.363719,-6.45218
1.17192,3.68808,0.398285,-6.15907
1.18097,3.69055,0.386885,-4.6757
1.19001,3.69312,0.315031,-1.70744
1.19906,3.69579,0.173319,2.81657
1.20811,3.69845,0.0310456,5.5048
1.21716,3.7009,0.00625353,0.867531
1.2262,3.70354,0.128846,0.000608098
1.23525,3.70633,0.370901,1.8634
1.2443,3.70876,0.0855961,4.45241
1.25335,3.71172,0.00244144,0.142985
1.26239,3.7145,0.266382,2.9595
1.27144,3.71718,-0.0355222,-0.378868
1.28049,3.72024,-0.0126096,-0.0800494
1.28954,3.72324,-0.0684207,0.142557
1.29858,3.72618,-0.115881,1.20477
1.30763,3.72907,-0.1547,2.87899
1.31668,3.73192,-0.184589,4.93762
1.32573,3.73477,-0.205258,7.15306
1.33477,3.73762,-0.216416,9.29772
1.34382,3.7405,-0.217775,11.144
1.35287,3.74343,-0.209043,12.4643
1.36192,3.74643,-0.189932,13.031
1.37096,3.74952,-0.160151,12.6166
1.38001,3.75271,-0.119411,10.9933
1.38906,3.75603,-0.0674216,7.93376
1.3981,3.7595,-0.00389342,3.21021
1.40715,3.76275,-0.0454879,-0.51493
1.4162,3.76591,0.198727,1.76369
1.42525,3.76886,0.0124218,1.17995
1.43429,3.77203,0.000587294,-0.272484
1.44334,3.77512,-0.00038632,1.21956
1.45239,3.77823,0.0063375,3.7097
1.46144,3.78134,0.0218203,6.36623
1.47048,3.78445,0.0448246,9.13989
1.47953,3.78755,0.0741129,11.9814
1.48858,3.79066,0.108448,14.8415
1.49763,3.79376,0.146591,17.6708
1.50667,3.79686,0.187307,20.4202
1.51572,3.79996,0.229356,23.0403
1.52477,3.80305,0.271502,25.4819
1.53382,3.80613,0.312506,27.6956
1.54286,3.80921,0.351132,29.6323
1.55191,3.81228,0.386142,31.2426
1.56096,3.81534,0.416299,32.4772
1.57001,3.81839,0.440364,33.2869
1.57905,3.82142,0.457101,33.6224
1.5881,3.82445,0.465271,33.4344
1.59715,3.82747,0.463639,32.6737
1.60619,3.83047,0.450965,31.2909
1.61524,3.83345,0.426012,29.2368
1.62429,3.83643,0.387543,26.4621
1.63334,3.83938,0.334321,22.9176
1.64238,3.84232,0.265108,18.5539
1.65143,3.84524,0.178666,13.3217
1.66048,3.84814,0.0737576,7.17191
1.66953,3.85102,-0.0253707,0.475167
1.67857,3.85404,0.36135,2.75243
1.68762,3.85727,-0.0365813,-0.584003
1.69667,3.86024,-0.00163693,2.78794
1.70572,3.86341,0.000121785,-0.076833
1.71476,3.8663,-0.00261915,2.65436
1.72381,3.86941,-0.00356263,5.46996
1.73286,3.87264,-0.00319116,7.36672
1.74191,3.87589,-0.00198774,7.34162
1.75095,3.87904,-0.000435361,4.39164
1.76,3.88215,-0.000592547,-0.26013
1.76905,3.88561,0.0173486,0.383396
1.7781,3.88893,0.0836654,-0.0481123
1.78714,3.89207,0.1777,-1.28759
1.79619,3.89504,0.277179,-2.75565
1.80524,3.89784,0.359829,-3.87295
1.81428,3.90047,0.403377,-4.0601
1.82333,3.90294,0.38555,-2.73774
1.83238,3.90524,0.284165,0.6693
1.84143,3.90748,0.116703,4.90184
1.85047,3.91003,0.00221053,4.00366
1.85952,3.91239,0.00068798,-0.204833
1.86857,3.91501,0.00467552,-0.0892481
1.87762,3.91755,0.0470679,-0.0747611
1.88666,3.91971,0.112925,0.219199
1.89571,3.92163,0.180095,0.483804
1.90476,3.92344,0.226427,0.410224
1.91381,3.92528,0.230003,-0.30467
1.92285,3.92724,0.185692,-1.55364
1.9319,3.92931,0.116137,-2.55061
1.94095,3.93151,0.0465854,-2.44582
1.95,3.93383,0.00228435,-0.389485
1.95904,3.93625,5.14119e-06,3.72782
1.96809,3.93864,0.00894042,5.8601
1.97714,3.94087,-0.00739335,1.00758
1.98619,3.94322,0.169234,-1.49877
1.99523,3.94594,0.262791,2.02065
2.00428,3.94877,0.0971212,5.11602
2.01333,3.95119,-0.00289805,1.63367
2.02237,3.95424,0.0142605,0.362728
2.03142,3.95722,0.258202,3.14193
2.04047,3.95991,0.554695,5.47246
2.04952,3.96272,0.604363,5.44462
2.05856,3.96603,0.129806,1.28283
2.06761,3.96907,0.00254334,1.12896
2.07666,3.97257,-0.0292145,-0.466335
2.08571,3.97586,0.302487,2.32554
2.09475,3.97932,0.0222854,0.882658
2.1038,3.98275,0.0202157,-0.159049
2.11285,3.9865,0.478464,1.53618
2.1219,3.99031,0.0640828,2.95291
2.13094,3.99384,0.186117,-0.241015
2.13999,3.99775,0.741265,0.0229607
2.14904,4.00162,0.671191,-0.59009
2.15809,4.00539,0.342775,0.57564
2.16713,4.00918,0.0641949,2.81965
2.17618,4.01343,0.00434889,-0.100722
2.18523,4.0174,0.355615,-0.0595515
2.19428,4.0211,0.700842,2.6873
2.20332,4.02496,0.440421,2.35214
2.21237,4.02905,-0.0297067,-0.0868773
2.22142,4.03286,0.32032,-0.2622
2.23046,4.03655,0.3765,1.29906
2.23951,4.04015,0.04702,2.82221
2.24856,4.04385,0.20957,-0.348915
2.25761,4.04774,0.432557,2.25926
2.26665,4.05104,-0.0234795,2.21618
2.2757,4.05451,0.368163,-0.042351
2.28475,4.05797,0.904193,2.65415
2.2938,4.06093,0.964679,5.13638
2.30284,4.0639,0.580159,4.4253
2.31189,4.0671,-0.0268478,-0.212005
2.32094,4.0696,0.0991402,0.0122389
2.32999,4.07231,0.253062,-0.878524
2.33903,4.07498,0.300882,0.215089
2.34808,4.07733,0.200094,4.83614
2.35713,4.07923,0.0552178,7.48301
2.36618,4.08057,-0.00227955,1.65681
2.37522,4.082,-0.000190454,0.111365
2.38427,4.08334,2.71027e-05,0.0035841
2.39332,4.084,3.55391e-06,-0.000247751
2.40237,4.08452,0.0162508,-1.16415
2.41141,4.08504,0.0544897,-3.91402
2.42046,4.08557,0.111186,-7.98915
2.42951,4.08611,0.182806,-13.1288
2.43855,4.08668,0.265816,-19.0723
2.4476,4.08727,0.356682,-25.5588
2.45665,4.0879,0.451869,-32.3278
2.4657,4.08857,0.547845,-39.1183
2.47474,4.08927,0.641075,-45.6698
2.48379,4.09003,0.728024,-51.7215
2.49284,4.09085,0.80516,-57.0127
2.50189,4.09173,0.868948,-61.2826
2.51093,4.09267,0.915855,-64.2705
2.51998,4.09369,0.942345,-65.7158
2.52903,4.09478,0.944886,-65.3576
2.53808,4.09596,0.919944,-62.9353
2.54712,4.09723,0.863984,-58.1882
2.55617,4.09859,0.773473,-50.8555
2.56522,4.10006,0.644877,-40.6764
2.57427,4.10163,0.474661,-27.3904
2.58331,4.10332,0.259292,-10.7366
2.59236,4.10506,0.0140786,7.07114
2.59999,4.1061,0.0025592,-0.902782

File: Cycle 72_charge.csv
Current(A),Test_Time(s),Voltage(V),Charge_Capacity(Ah),dV/dQ(V/Ah),dQ/dV(Ah/V),Charge_Energy(Wh),Power(W),Downsampled Voltage (V),Downsampled Capacity (Ah),dQ/dV from downsampled Voltage (Ah/V),dV/dQ from downsampled Cpacity (V/Ah),Downsampled Energy (Wh),Downsampled Power (W),dP/dE from downsampled Energy (W/Wh),dQ/dV from LEAN (Ah/V),Delta_V (V) in LEAN
0.14999,1043.66,4.2001,0.021738,0.0,0.0,0.091301,0.62997,,,,,0.091301,0.592661,3.16222,1.30692,0.0049
0.14998,80831.5,3.1291,0.044997,3.8694,0.26649,0.13573,0.4693,3.1291,0.044997,0.267517,3.74,0.13573,0.469327,0.177206,3.03125,0.0049
0.14999,81491.5,3.2154,0.072495,2.7585,0.36459,0.22302,0.48228,3.2154,0.072495,0.368284,2.72,0.22302,0.48226,0.124353,3.2046,0.0049
0.14999,82151.5,3.2803,0.099993,,0.46972,0.31237,0.49201,3.2803,0.099993,0.476666,2.10119,0.31237,0.491979,0.0953892,3.27626,0.0049
0.14999,82811.5,3.3316,0.12749,0.0,0.57982,0.4033,0.49971,3.3316,0.12749,0.617472,1.62,0.4033,0.499687,0.0753392,3.4198,0.0049
0.14998,83471.5,3.3695,0.15499,0.0,0.87372,0.49547,0.50536,3.3695,0.15499,0.985485,1.02667,0.49547,0.505382,0.0444708,3.81833,0.0049
0.14998,84131.5,3.3862,0.18249,,,0.58839,0.50786,3.3862,0.18249,2.51115,0.40018,0.58839,0.507904,0.0182682,5.50082,0.0049
0.14998,84791.5,3.3956,0.20998,0.0,,0.68164,0.50927,,,,,0.68164,0.509316,0.013813,5.81748,0.0049
0.14999,85451.5,3.4041,0.23748,0.0,0.0,0.77513,0.51058,,,,,0.77513,0.510574,0.0122165,6.18391,0.0049
0.14999,86111.5,3.4118,0.26498,,0.0,0.86884,0.51174,,,,,0.86884,0.511714,0.0122293,6.60457,0.0049
0.14998,86771.5,3.419,0.29248,0.0,0.0,0.96276,0.51278,,,,,0.96276,0.512776,0.0117695,6.73813,0.0049
0.14999,87431.5,3.4258,0.31997,,,1.0569,0.51384,3.4258,0.31997,4.05987,0.246316,1.0569,0.513849,0.0125252,6.66636,0.0049
0.14998,88091.5,3.4329,0.34747,,3.8227,1.1512,0.51487,,,,,1.1512,0.514911,0.0125836,6.49084,0.0049
0.14998,88751.5,3.4408,0.37497,0.0,0.0,1.2457,0.51605,,,,,1.2457,0.516071,0.0128327,6.12441,0.0049
0.14999,89411.5,3.4496,0.40247,,0.0,1.3404,0.51741,3.4496,0.40247,2.97675,0.336222,1.3404,0.517379,0.0146447,5.6618,0.0049
0.14999,90071.5,3.4594,0.42997,,,1.4354,0.51888,,,,,1.4354,0.518849,0.0167072,5.43662,0.0049
0.14998,90731.5,3.4701,0.45746,,0.0,1.5307,0.52045,3.4701,0.45746,2.46989,0.405,1.5307,0.520454,0.0181095,5.34501,0.0049
0.14998,91391.5,3.4811,0.48496,0.0,,1.6262,0.5221,,,,,1.6262,0.522097,0.0169145,5.36485,0.0049
0.14998,92051.5,3.4917,0.51246,,0.0,1.7221,0.52369,,,,,1.7221,0.523731,0.0163666,5.40681,0.0049
0.14999,92711.5,3.5027,0.53996,0.40059,2.4535,1.8183,0.52537,,,,,1.8183,0.525365,0.0174024,5.33504,0.0049
0.14999,93371.5,3.5141,0.56745,,,1.9147,0.52708,3.5141,0.56745,2.59828,0.385,1.9147,0.527068,0.0168309,5.37483,0.0049
0.14999,94031.5,3.5242,0.59495,0.0,,2.0115,0.52859,,,,,2.0115,0.528581,0.0141502,5.65422,0.0049
0.14998,94691.5,3.5339,0.62245,,,2.1085,0.53001,3.5339,0.62245,2.72651,0.367111,2.1085,0.530002,0.0152055,5.48856,0.0049
0.14999,95351.5,3.5446,0.64995,0.0,,2.2059,0.53165,,,,,2.2059,0.531632,0.0177696,5.30306,0.0049
0.14998,96011.506,3.5558,0.67744,,,2.3035,0.5333,,,,,2.3035,0.533329,0.0161337,5.40452,0.0049
0.14999,96671.507,3.5649,0.70494,,,2.4014,0.5347,,,,,2.4014,0.534706,0.0111954,6.1862,0.0049
0.14998,97331.5,3.5723,0.73244,0.27467,,2.4995,0.53577,,,,,2.4995,0.53579,0.0112582,6.6862,0.0049
0.14998,97991.5,3.5793,0.75993,,0.0,2.5978,0.53682,,,,,2.5978,0.536835,0.010622,6.76795,0.0049
0.14999,98651.5,3.5862,0.78743,0.0,,2.6964,0.53789,3.5862,0.78743,4.12792,0.242857,2.6964,0.53786,0.0110548,6.91137,0.0049
0.14999,99311.5,3.5926,0.81493,0.24215,0.0,2.7951,0.53885,,,,,2.7951,0.53885,0.00856466,7.29992,0.0049
0.14999,99971.5,3.5986,0.84243,,,2.8939,0.53975,,,,,2.8939,0.539755,0.00875809,7.5275,0.0049
0.14998,100632,3.6046,0.86992,0.0,,2.993,0.54062,,,,,2.993,0.5406,0.00808346,7.69076,0.0049
0.14999,101292,3.6102,0.89742,,0.0,3.0921,0.54149,3.6102,0.89742,4.90132,0.205,3.0921,0.541464,0.00828936,7.71072,0.0049
0.14999,101952,3.6157,0.92492,0.0,,3.1915,0.54232,,,,,3.1915,0.54231,0.00850427,7.73044,0.0049
0.14998,102612,3.6213,0.95241,,0.0,3.291,0.54312,,,,,3.291,0.543111,0.00864847,7.80221,0.0049
0.14999,103271.506,3.6266,0.97991,0.0,,3.3906,0.54395,,,,,3.3906,0.543955,0.00899135,7.84428,0.0049
0.14997,103932,3.6321,1.0074,,0.0,3.4904,0.54471,,,,,3.4904,0.544757,0.00808128,7.87398,0.0049
0.14998,104592,3.6377,1.0349,0.0,,3.5904,0.54558,,,,,3.5904,0.545572,0.00772945,7.84428,0.0049
0.14998,105252,3.6431,1.0624,,5.0209,3.6905,0.54639,,,,,3.6905,0.546411,0.0082392,7.78237,0.0049
0.14999,105912,3.6486,1.0899,0.0,,3.7907,0.54725,,,,,3.7907,0.547236,0.00839315,7.65878,0.0049
0.14999,106572,3.6542,1.1174,,0.0,3.8911,0.54809,3.6542,1.1174,4.84085,0.207698,3.8911,0.548084,0.00855408,7.59687,0.0049
0.14999,107232,3.6601,1.1449,0.0,0.0,3.9917,0.54898,,,,,3.9917,0.548968,0.00757231,7.54734,0.0049
0.14999,107892,3.6661,1.1724,0.0,,4.0924,0.54988,3.6661,1.1724,4.4318,0.225714,4.0924,0.549865,0.00834125,7.342,0.0049
0.14998,108552,3.6723,1.1999,,,4.1933,0.55077,,,,,4.1933,0.550769,0.00942282,7.20832,0.0049
0.14999,109212,3.6787,1.2274,0.0,,4.2944,0.55177,,,,,4.2944,0.55175,0.0100258,7.04506,0.0049
0.14999,109872,3.6853,1.2549,0.0,0.0,4.3956,0.55276,,,,,4.3956,0.552763,0.0103996,6.74811,0.0049
0.14998,110532,3.6924,1.2824,0.25368,,4.4971,0.55379,,,,,4.4971,0.553811,0.0107785,6.61443,0.0049
0.14998,111192,3.7,1.3099,,,4.5987,0.55493,,,,,4.5987,0.554938,0.0110991,6.38925,0.0049
0.14998,111852,3.7077,1.3374,,0.0,4.7005,0.55608,,,,,4.7005,0.556077,0.0124522,6.28779,0.0049
0.14998,112512,3.7159,1.3649,0.0,,4.8026,0.55731,,,,,4.8026,0.557325,0.012219,6.10228,0.0049
0.14998,113171.506,3.7242,1.3924,0.0,,4.9049,0.55856,,,,,4.9049,0.558598,0.0123656,6.01068,0.0049
0.14999,113831.507,3.733,1.4199,0.31825,3.1263,5.0074,0.55991,,,,,5.0074,0.559888,0.0126714,5.95874,0.0049
0.14998,114492,3.7421,1.4474,,,5.1102,0.56124,3.7421,1.4474,3.01292,0.332,5.1102,0.561231,0.0127808,5.86713,0.0049
0.14998,115152,3.7512,1.4749,0.0,,5.2132,0.5626,,,,,5.2132,0.562604,0.014849,5.77553,0.0049
0.14998,115811.506,3.7602,1.5024,,0.0,5.3165,0.56395,,,,,5.3165,0.563976,0.0138893,5.80534,0.0049
0.14998,116472,3.7694,1.5299,0.0,,5.42,0.56533,,,,,5.42,0.56534,0.0133475,5.85727,0.0049
0.14999,117132,3.7785,1.5574,,3.0249,5.5238,0.56674,,,,,5.5238,0.566719,0.0130299,5.80534,0.0049
0.14997,117792,3.7877,1.5848,0.0,,5.6278,0.56804,,,,,5.6278,0.568067,0.0134818,5.89923,0.0049
0.14999,118452,3.7968,1.6123,,0.0,5.7321,0.56948,,,,,5.7321,0.569456,0.0133542,5.86713,0.0049
0.14999,119112,3.8058,1.6398,0.0,,5.8366,0.57083,3.8058,1.6398,2.94199,0.34,5.8366,0.570834,0.0139909,5.77553,0.0049
0.14998,119772,3.8153,1.6673,,0.0,5.9414,0.57222,,,,,5.9414,0.572234,0.014041,5.59002,0.0049
0.14997,120432,3.8254,1.6948,,0.0,6.0464,0.5737,,,,,6.0464,0.573733,0.0146086,5.47858,0.0049
0.14999,121092,3.8368,1.7223,0.0,,6.1518,0.57548,,,,,6.1518,0.575449,0.017905,4.98628,0.0049
0.15,121752,3.8502,1.7498,0.0,,6.2574,0.57753,3.8502,1.7498,1.92561,0.52,6.2574,0.577484,0.0200516,4.78094,0.0049
0.14998,122412,3.8636,1.7773,,2.1552,6.3635,0.57946,,,,,6.3635,0.579485,0.0163807,5.24114,0.0049
0.14998,123072,3.8736,1.8048,,2.8919,6.4699,0.58096,3.8736,1.8048,3.18074,0.314667,6.4699,0.580999,0.0121837,6.0007,0.0049
0.14999,123732,3.8815,1.8323,0.0,,6.5765,0.58219,,,,,6.5765,0.582167,0.00975056,6.6862,0.0049
0.14999,124391.506,3.8885,1.8598,,4.01,6.6833,0.58324,,,,,6.6833,0.583214,0.00951174,6.93361,0.0049
0.14998,125052,3.8949,1.8873,0.0,,6.7903,0.58416,,,,,6.7903,0.584139,0.0101575,7.11671,0.0049
0.14998,125711.507,3.9008,1.9148,,,6.8975,0.58504,,,,,6.8975,0.585066,0.00881171,7.48543,0.0049
0.14998,126372,3.9066,1.9423,0.0,,7.0049,0.58591,,,,,7.0049,0.585949,0.00729337,7.66107,0.0049
0.14998,127032,3.9123,1.9698,,0.0,7.1124,0.58677,,,,,7.1124,0.586764,0.00841129,7.70074,0.0049
0.14998,127692,3.9178,1.9973,0.0,,7.22,0.58759,3.9178,1.9973,4.90132,0.205,7.22,0.587618,0.00778745,7.60913,0.0049
0.14998,128352,3.9239,2.0248,0.0,,7.3278,0.58851,,,,,7.3278,0.58851,0.00846891,7.42363,0.0049
0.14999,129012,3.9301,2.0523,,,7.4358,0.58948,3.9301,2.0523,4.27337,0.234286,7.4358,0.589433,0.00803601,6.96331,0.0049
0.14999,129672,3.9366,2.0798,0.0,,7.5439,0.59045,,,,,7.5439,0.590456,0.00974874,6.69617,0.0049
0.14998,130332,3.944,2.1073,0.0,,7.6523,0.59152,,,,,7.6523,0.591544,0.0109186,6.5007,0.0049
0.14998,130992,3.9522,2.1348,,,7.7608,0.59275,,,,,7.7608,0.592749,0.0113498,6.1862,0.0049
0.14998,131652,3.9611,2.1623,0.0,,7.8696,0.59409,,,,,7.8696,0.594075,0.0123543,5.68163,0.0049
0.14998,132311.507,3.9705,2.1898,,0.0,7.9787,0.5955,,,,,7.9787,0.595512,0.0144911,5.50839,0.0049
0.14999,132972,3.9808,2.2173,0.0,0.0,8.088,0.59708,,,,,8.088,0.597079,0.0146527,5.41679,0.0049
0.14998,133632,3.9918,2.2448,,,8.1976,0.59869,,,,,8.1976,0.598709,0.0144254,5.32518,0.0049
0.14997,134292,4.0032,2.2723,0.41405,2.4014,8.3075,0.60036,,,,,8.3075,0.600395,0.0146352,5.21145,0.0049
0.14999,134952,4.0148,2.2998,0.0,,8.4178,0.60218,,,,,8.4178,0.602135,0.0147898,5.20147,0.0049
0.14998,135612,4.0262,2.3273,,,8.5283,0.60385,4.0262,2.3273,2.41034,0.415,8.5283,0.603851,0.0152288,5.27324,0.0049
0.14999,136271.509,4.0373,2.3548,0.0,0.0,8.6392,0.60555,,,,,8.6392,0.605513,0.0144961,5.36485,0.0049
0.14998,136932,4.0474,2.3823,,0.0,8.7503,0.60703,,,,,8.7503,0.607057,0.0142307,5.62212,0.0049
0.14998,137592,4.0571,2.4098,,0.0,8.8618,0.60848,,,,,8.8618,0.608502,0.0111917,5.68163,0.0049
0.14998,138252,4.066,2.4373,0.0,,8.9734,0.60982,4.066,2.4373,3.37187,0.29697,8.9734,0.609812,0.010456,6.20375,0.0049
0.14998,138912,4.0734,2.4647,,3.7955,9.0853,0.61093,,,,,9.0853,0.610925,0.00841352,7.58701,0.0049
0.14998,139572,4.0789,2.4922,0.0,,9.1974,0.61175,,,,,9.1974,0.611792,0.00602975,7.97426,0.0049
0.14998,140232,4.0825,2.5197,0.17389,0.0,9.3096,0.61229,,,,,9.3096,0.612325,0.00309772,6.90525,0.0049
0.14998,140712,4.0846,2.5397,0.0,,9.3913,0.61261,4.0846,2.5397,10,0.0800866,9.3913,0.612609,0.00238585,6.90525,0.0049