Folder: battery-analysis-project/Data/processed_data (part 4)

File: Cycle 520_discharge.csv
Current(A),Test_Time(s),Voltage(V),Discharge_Capacity(Ah),dV/dQ(V/Ah),dQ/dV(Ah/V),Discharge_Energy(Wh),Power(W),Downsampled Voltage (V),Downsampled Capacity (Ah),dQ/dV from downsampled Voltage (Ah/V),dV/dQ from downsampled Cpacity (V/Ah),Downsampled Energy (Wh),Downsampled Power (W),dP/dE from downsampled Energy (W/Wh),dQ/dV from LEAN (Ah/V),Delta_V (V) in LEAN
-0.14999,12257.959,4.0726,0.31986,0.0,,1.3107,-0.61085,,,,,1.3107,-0.610866,0.00626628,,0.0049
-0.14999,12917.959,4.0704,0.34734,0.0,,1.4226,-0.61052,,,,,1.4226,-0.610522,0.00357808,,0.0049
-0.14999,13577.959,4.068,0.37483,,0.0,1.5345,-0.61016,,,,,1.5345,-0.610154,0.00318799,,0.0049
-0.14999,14237.959,4.0644,0.40232,0.0,0.0,1.6463,-0.60962,,,,,1.6463,-0.609661,0.00495743,,0.0049
-0.14999,14897.959,4.0595,0.42981,,,1.758,-0.60888,,,,,1.758,-0.608911,0.00825781,,0.0049
-0.14999,15557.959,4.0531,0.4573,0.0,0.0,1.8694,-0.60792,,,,,1.8694,-0.607933,0.0102855,,0.0049
-0.14999,16217.96,4.0454,0.48479,,0.0,1.9808,-0.60677,,,,,1.9808,-0.606754,0.0109338,,0.0049
-0.14999,16877.96,4.0367,0.51228,,3.1158,2.0919,-0.60546,,,,,2.0919,-0.605464,0.0116768,,0.0049
-0.15,17537.959,4.0271,0.53977,,,2.2027,-0.60407,,,,,2.2027,-0.604052,0.0134102,7.06758,0.0049
-0.14999,18197.96,4.0169,0.56726,,2.6607,2.3133,-0.60249,,,,,2.3133,-0.602527,0.0142594,5.17419,0.0049
-0.14999,18857.959,4.0062,0.59475,0.0,2.5029,2.4235,-0.60089,4.0062,0.59475,-2.41034,-0.415,2.4235,-0.6009,0.0156418,3.6337,0.0049
-0.15,19517.959,3.9949,0.62224,,0.0,2.5335,-0.59924,,,,,2.5335,-0.599201,0.0147809,3.14083,0.0049
-0.15,20177.959,3.9834,0.64973,0.0,,2.6432,-0.59751,,,,,2.6432,-0.597501,0.0158356,2.74566,0.0049
-0.15,20837.959,3.9722,0.67722,,0.0,2.7525,-0.59583,,,,,2.7525,-0.595821,0.0146138,2.58567,0.0049
-0.14999,21497.959,3.9617,0.70471,0.38964,2.6093,2.8616,-0.59422,3.9617,0.70471,-2.5464,-0.393022,2.8616,-0.594212,0.015228,2.49756,0.0049
-0.14999,22157.96,3.9516,0.7322,0.36826,2.7611,2.9704,-0.5927,,,,,2.9704,-0.592704,0.0132152,2.40746,0.0049
-0.14999,22817.959,3.9421,0.75969,0.34404,,3.0789,-0.59128,3.9421,0.75969,-3.08616,-0.324133,3.0789,-0.591292,0.0132438,2.41706,0.0049
-0.14999,23477.96,3.9334,0.78718,,0.0,3.1871,-0.58997,,,,,3.1871,-0.589985,0.0114885,2.50616,0.0049
-0.15,24137.96,3.9253,0.81468,,0.0,3.2951,-0.5888,,,,,3.2951,-0.588785,0.0115064,2.58567,0.0049
-0.14999,24797.96,3.9177,0.84217,0.0,0.0,3.4029,-0.58762,3.9177,0.84217,-3.76742,-0.266747,3.4029,-0.587638,0.0100031,2.63402,0.0049
-0.14999,25457.959,3.9107,0.86966,0.0,,3.5105,-0.58657,,,,,3.5105,-0.586599,0.00925542,2.85297,0.0049
-0.14999,26117.96,3.9041,0.89715,,0.0,3.618,-0.58558,,,,,3.618,-0.585571,0.00871252,2.94541,0.0049
-0.14999,26777.959,3.8975,0.92464,,,3.7252,-0.58459,,,,,3.7252,-0.58458,0.00985509,3.06133,0.0049
-0.14999,27437.96,3.8904,0.95214,0.0,0.0,3.8323,-0.58352,3.8904,0.95214,-3.71273,-0.270097,3.8323,-0.583531,0.00996483,3.31804,0.0049
-0.15,28097.959,3.8827,0.97963,,,3.9391,-0.58241,,,,,3.9391,-0.582382,0.0121633,3.51017,0.0049
-0.15,28757.959,3.8739,1.0071,0.0,,4.0457,-0.58109,3.8739,1.0071,-2.97981,-0.336883,4.0457,-0.581058,0.0125225,3.83017,0.0049
-0.15,29417.959,3.8638,1.0346,,,4.1521,-0.57957,,,,,4.1521,-0.579552,0.0150651,4.03091,0.0049
-0.14999,30077.959,3.8532,1.0621,,,4.2582,-0.57794,,,,,4.2582,-0.577953,0.0164912,3.97295,0.0049
-0.14999,30737.96,3.8425,1.0896,,0.0,4.3639,-0.57634,3.8425,1.0896,-2.58206,-0.387333,4.3639,-0.576342,0.0158739,3.6036,0.0049
-0.14999,31397.959,3.832,1.1171,0.38295,,4.4694,-0.57476,,,,,4.4694,-0.574765,0.0140273,2.90034,0.0049
-0.15,32057.959,3.8217,1.1446,0.36973,2.7154,4.5746,-0.57326,3.8217,1.1446,-2.73658,-0.365556,4.5746,-0.573262,0.0141511,2.67477,0.0049
-0.14999,32717.959,3.8118,1.1721,0.36086,,4.6796,-0.57173,,,,,4.6796,-0.571754,0.0138806,2.57706,0.0049
-0.14998,33377.959,3.802,1.1996,0.35667,,4.7842,-0.57022,3.802,1.1996,-2.79718,-0.358444,4.7842,-0.570287,0.014489,2.53632,0.0049
-0.14999,34037.96,3.7927,1.227,,0.0,4.8886,-0.56887,,,,,4.8886,-0.568881,0.0134769,2.65755,0.0049
-0.14999,34697.959,3.7834,1.2545,0.0,0.0,4.9927,-0.56747,,,,,4.9927,-0.567465,0.013781,2.73706,0.0049
-0.14999,35357.959,3.7742,1.282,,,5.0966,-0.56609,3.7742,1.282,-3.01292,-0.332,5.0966,-0.566099,0.0130437,2.76387,0.0049
-0.14999,36017.959,3.765,1.3095,0.0,0.0,5.2002,-0.56471,,,,,5.2002,-0.564721,0.0125185,2.81223,0.0049
-0.14999,36677.959,3.756,1.337,,3.0167,5.3036,-0.56336,,,,,5.3036,-0.563347,0.0135446,2.89272,0.0049
-0.15,37337.96,3.7467,1.3645,0.0,,5.4067,-0.56201,,,,,5.4067,-0.562008,0.0122204,2.93247,0.0049
-0.15,37997.959,3.7374,1.392,,0.0,5.5096,-0.56061,,,,,5.5096,-0.560602,0.0148336,2.97223,0.0049
-0.14999,38657.959,3.7281,1.4195,0.0,0.0,5.6122,-0.55918,,,,,5.6122,-0.559178,0.0141297,3.02158,0.0049
-0.14999,39317.959,3.7188,1.447,,,5.7146,-0.55778,,,,,5.7146,-0.557776,0.013194,3.05272,0.0049
-0.14999,39977.96,3.7096,1.4745,0.0,0.0,5.8167,-0.5564,3.7096,1.4745,-3.09159,-0.323556,5.8167,-0.556407,0.0138131,3.00337,0.0049
-0.14999,40637.959,3.7007,1.502,,,5.9186,-0.55507,,,,,5.9186,-0.555066,0.0122518,2.96362,0.0049
-0.14999,41297.96,3.6919,1.5294,0.31561,,6.0202,-0.55375,,,,,6.0202,-0.553799,0.0124661,2.91427,0.0049
-0.14999,41957.959,3.6837,1.5569,,,6.1215,-0.55252,,,,,6.1215,-0.55253,0.0119052,2.95501,0.0049
-0.15,42617.959,3.6759,1.5844,0.0,,6.2227,-0.55139,,,,,6.2227,-0.551353,0.0112674,2.96362,0.0049
-0.14998,43277.959,3.6683,1.6119,,0.0,6.3237,-0.55017,,,,,6.3237,-0.550208,0.010879,3.00337,0.0049
-0.15,43937.959,3.6611,1.6394,,3.8308,6.4244,-0.54917,,,,,6.4244,-0.549128,0.0112636,3.06133,0.0049
-0.14999,44597.959,3.654,1.6669,0.0,,6.5249,-0.54806,3.654,1.6669,-4.00047,-0.250769,6.5249,-0.548088,0.0110432,3.19018,0.0049
-0.15,45257.959,3.6474,1.6944,,0.0,6.6253,-0.54711,,,,,6.6253,-0.547093,0.00921258,3.26108,0.0049
-0.14999,45917.959,3.6409,1.7219,,4.2658,6.7255,-0.5461,,,,,6.7255,-0.546118,0.00930736,3.46182,0.0049
-0.15,46577.959,3.6348,1.7494,0.0,,6.8255,-0.54522,,,,,6.8255,-0.545196,0.008772,3.5456,0.0049
-0.15,47237.959,3.6287,1.7769,0.0,,6.9253,-0.54431,,,,,6.9253,-0.544269,0.00967979,3.62943,0.0049
-0.14999,47897.959,3.6226,1.8043,0.0,,7.025,-0.54335,,,,,7.025,-0.543344,0.00896766,3.76355,0.0049
-0.15,48557.959,3.6164,1.8318,0.0,4.463,7.1245,-0.54246,,,,,7.1245,-0.542426,0.0090676,4.00305,0.0049
-0.14999,49217.959,3.6102,1.8593,,0.0,7.2238,-0.54149,3.6102,1.8593,-4.27337,-0.234286,7.2238,-0.541483,0.00954545,4.11469,0.0049
-0.15,49877.959,3.6037,1.8868,0.0,0.0,7.323,-0.54056,,,,,7.323,-0.540543,0.00910386,4.221,0.0049
-0.15,50537.959,3.5971,1.9143,,,7.422,-0.53957,,,,,7.422,-0.539567,0.0108677,4.37667,0.0049
-0.14999,51197.96,3.5904,1.9418,0.0,,7.5208,-0.53852,,,,,7.5208,-0.53854,0.0110181,4.42508,0.0049
-0.15,51857.96,3.5835,1.9693,,0.0,7.6194,-0.53753,,,,,7.6194,-0.537491,0.0102014,4.4797,0.0049
-0.14999,52517.96,3.5761,1.9968,0.0,3.7947,7.7178,-0.53638,,,,,7.7178,-0.536397,0.0105601,4.43369,0.0049
-0.14999,53177.96,3.5687,2.0243,0.0,,7.816,-0.53527,,,,,7.816,-0.535277,0.0105707,4.40881,0.0049
-0.14999,53837.96,3.561,2.0518,,3.514,7.914,-0.53411,,,,,7.914,-0.534114,0.0125665,4.2114,0.0049
-0.15,54497.959,3.553,2.0793,0.0,0.0,8.0118,-0.53295,,,,,8.0118,-0.532908,0.0128716,4.06534,0.0049
-0.15,55157.959,3.5446,2.1067,,0.0,8.1093,-0.53169,,,,,8.1093,-0.531641,0.0120617,3.98583,0.0049
-0.14999,55817.959,3.5359,2.1342,,3.2055,8.2067,-0.53035,,,,,8.2067,-0.530366,0.0127284,3.75828,0.0049
-0.15,56477.959,3.5272,2.1617,,,8.3037,-0.52908,,,,,8.3037,-0.529081,0.0130331,3.63042,0.0049
-0.15,57137.959,3.5185,2.1892,0.0,,8.4006,-0.52778,,,,,8.4006,-0.527766,0.0141476,3.47042,0.0049
-0.15,57797.959,3.5095,2.2167,,0.0,8.4972,-0.52643,,,,,8.4972,-0.526367,0.0143913,3.35878,0.0049
-0.15,58457.959,3.4998,2.2442,0.0,,8.5935,-0.52497,,,,,8.5935,-0.524972,0.0156033,3.25247,0.0049
-0.15,59117.959,3.4898,2.2717,0.0,,8.6896,-0.52347,3.4898,2.2717,-2.66761,-0.375,8.6896,-0.52348,0.0163237,3.19451,0.0049
-0.14999,59777.959,3.4795,2.2992,0.0,,8.7854,-0.52189,,,,,8.7854,-0.521897,0.016877,3.04312,0.0049
-0.14998,60437.96,3.4688,2.3267,,0.0,8.8809,-0.52025,,,,,8.8809,-0.520263,0.0173673,2.98615,0.0049
-0.14999,61097.959,3.4576,2.3542,0.0,,8.9761,-0.51861,3.4576,2.3542,-2.38551,-0.419524,8.9761,-0.518609,0.017778,2.84337,0.0049
-0.14999,61757.96,3.4462,2.3816,,2.4324,9.071,-0.5169,3.4462,2.3816,-2.49124,-0.402131,9.071,-0.516906,0.0176601,2.75526,0.0049
-0.14999,62417.959,3.4356,2.4091,0.0,2.6703,9.1656,-0.51531,,,,,9.1656,-0.515329,0.0155947,2.59427,0.0049
-0.14999,63077.959,3.4267,2.4366,0.0,,9.2599,-0.51397,,,,,9.2599,-0.514001,0.0134153,2.50616,0.0049
-0.14999,63737.959,3.419,2.4641,0.0,,9.354,-0.51282,,,,,9.354,-0.512802,0.0124176,2.45681,0.0049
-0.14999,64397.96,3.4112,2.4916,,3.5563,9.4479,-0.51165,,,,,9.4479,-0.511642,0.0129096,2.44821,0.0049
-0.14999,65057.959,3.403,2.5191,,0.0,9.5416,-0.51042,,,,,9.5416,-0.510434,0.0125696,2.49656,0.0049
-0.14999,65717.959,3.3943,2.5466,,0.0,9.635,-0.50911,3.3943,2.5466,-2.9616,-0.34,9.635,-0.509129,0.014577,2.79402,0.0049
-0.14999,66377.96,3.3842,2.5741,0.0,0.0,9.7282,-0.5076,,,,,9.7282,-0.507612,0.0172837,3.29321,0.0049
-0.14999,67037.959,3.372,2.6016,0.0,,9.8211,-0.50577,,,,,9.8211,-0.505761,0.0227518,3.51977,0.0049
-0.15,67697.96,3.3557,2.6291,,1.5334,9.9136,-0.50336,,,,,9.9136,-0.503318,0.0307988,3.06133,0.0049
-0.14999,68357.959,3.3334,2.6566,,,10.006,-0.49998,3.3334,2.6566,-1.04916,-0.953333,10.006,-0.499999,0.0413732,2.23025,0.0049
-0.14998,69017.96,3.3033,2.6841,0.0,0.83489,10.097,-0.49543,3.3033,2.6841,-0.80223,-1.24667,10.097,-0.4955,0.0590953,1.29714,0.0049
-0.14999,69677.959,3.2634,2.7115,0.0,0.61231,10.187,-0.48948,3.2634,2.7115,-0.588398,-1.7,10.187,-0.489503,0.0791259,0.853612,0.0049
-0.14998,70337.959,3.209,2.739,2.2189,0.44968,10.276,-0.48129,3.209,2.739,-0.442547,-2.26,10.276,-0.481339,0.107465,0.57337,0.0049
-0.15,70997.96,3.1364,2.7665,2.9609,0.33528,10.363,-0.47046,3.1364,2.7665,-0.331853,-3.02,10.363,-0.470414,0.143418,0.386559,0.0049
-0.14999,71657.959,3.0365,2.794,4.1998,0.23534,10.448,-0.45544,3.0365,2.794,-0.231839,-4.32,10.448,-0.455432,0.21783,0.266313,0.0049
-0.14999,72317.959,2.8808,2.8215,7.625,0.13281,10.53,-0.43209,2.8808,2.8215,-0.1273,-7.9,10.53,-0.432255,0.42503,0.159997,0.0049
-0.15,72914.339,2.5,2.8463,17.669,0.057062,10.597,-0.375,2.5,2.8463,-0.0541176,-18.2858,,,,,0.0049

File: Cycle 745_charge.csv
Current(A),Test_Time(s),Voltage(V),Charge_Capacity(Ah),dV/dQ(V/Ah),dQ/dV(Ah/V),Charge_Energy(Wh),Power(W),Downsampled Voltage (V),Downsampled Capacity (Ah),dQ/dV from downsampled Voltage (Ah/V),dV/dQ from downsampled Cpacity (V/Ah),Downsampled Energy (Wh),Downsampled Power (W),dP/dE from downsampled Energy (W/Wh),dQ/dV from LEAN (Ah/V),Delta_V (V) in LEAN
0.14999,1156.42,4.2002,0.03924,0.0,0.0,0.16548,0.62999,,,,,0.16548,0.607772,2.52274,1.07385,0.0056
0.14998,76989.948,3.2172,0.05998,2.9605,0.34017,0.18596,0.48252,3.2172,0.05998,0.347758,2.88,0.18596,0.482514,0.133202,3.37858,0.0056
0.14998,77589.949,3.2802,0.08497,,0.44252,0.26718,0.49196,3.2802,0.08497,0.443102,2.26,0.26718,0.491967,0.102788,3.47888,0.0056
0.14999,78189.95,3.3303,0.10996,,0.54438,0.3498,0.49951,3.3303,0.10996,0.549617,1.8239,0.3498,0.499463,0.0811626,3.57109,0.0056
0.14998,78789.949,3.3698,0.13496,,0.71601,0.43355,0.5054,3.3698,0.13496,0.761451,1.32233,0.43355,0.505419,0.0584004,3.79391,0.0056
0.14998,79389.949,3.3925,0.15995,,0.0,0.51808,0.50881,,,,,0.51808,0.508813,0.0256278,4.59045,0.0056
0.14997,79989.948,3.4041,0.18494,,2.3716,0.60302,0.51051,,,,,0.60302,0.510554,0.0167819,5.77006,0.0056
0.14998,80589.95,3.4128,0.20993,,,0.6882,0.51185,,,,,0.6882,0.511869,0.0134191,6.08519,0.0056
0.14999,81189.948,3.4202,0.23492,,0.0,0.77359,0.513,,,,,0.77359,0.512994,0.0129085,6.41806,0.0056
0.14998,81789.948,3.4272,0.25991,0.0,,0.85916,0.51401,,,,,0.85916,0.514012,0.0115981,6.80736,0.0056
0.14998,82389.949,3.4336,0.2849,,3.8455,0.94489,0.51497,,,,,0.94489,0.515003,0.0110546,6.88358,0.0056
0.14999,82989.948,3.44,0.3099,,0.0,1.0308,0.51597,,,,,1.0308,0.515971,0.0114517,6.8674,0.0056
0.14998,83589.949,3.4466,0.33489,,0.0,1.1168,0.51692,,,,,1.1168,0.516943,0.0108637,6.69107,0.0056
0.14999,84189.949,3.4534,0.35988,0.268,3.665,1.2031,0.51798,,,,,1.2031,0.517967,0.0122656,6.5165,0.0056
0.14998,84789.949,3.4608,0.38487,0.0,,1.2895,0.51905,,,,,1.2895,0.519063,0.0125722,6.13529,0.0056
0.14998,85389.949,3.4689,0.40986,,3.0773,1.376,0.52027,,,,,1.376,0.520253,0.0152157,5.91861,0.0056
0.14999,85989.948,3.4779,0.43485,,0.0,1.4628,0.52165,3.4779,0.43485,2.66632,0.375193,1.4628,0.521613,0.0158645,5.66177,0.0056
0.14997,86589.95,3.4877,0.45984,0.0,0.0,1.5499,0.52305,,,,,1.5499,0.523075,0.0171966,5.5795,0.0056
0.14999,87189.949,3.498,0.48483,0.0,0.0,1.6372,0.52467,3.498,0.48483,2.40916,0.415213,1.6372,0.524635,0.0174046,5.38699,0.0056
0.14998,87789.948,3.5084,0.50983,,0.0,1.7247,0.52619,,,,,1.7247,0.526192,0.0176973,5.40493,0.0056
0.14999,88389.949,3.5188,0.53482,,2.3879,1.8125,0.52778,,,,,1.8125,0.527765,0.0181867,5.42101,0.0056
0.14998,88989.948,3.529,0.55981,,2.4582,1.9006,0.52928,,,,,1.9006,0.529265,0.0167257,5.49529,0.0056
0.14998,89589.948,3.5387,0.5848,,2.5663,1.9889,0.53073,,,,,1.9889,0.530739,0.0163666,5.64569,0.0056
0.14998,90189.948,3.5484,0.60979,,,2.0775,0.53219,,,,,2.0775,0.532179,0.0151843,5.66986,0.0056
0.14998,90789.949,3.5576,0.63478,,0.0,2.1663,0.53357,3.5576,0.63478,2.73509,0.365764,2.1663,0.533565,0.0158203,5.77815,0.0056
0.14998,91389.948,3.5664,0.65978,,,2.2553,0.53489,3.5664,0.65978,2.92443,0.341966,2.2553,0.534895,0.0141106,5.9768,0.0056
0.14998,91989.948,3.5747,0.68477,0.0,,2.3445,0.53613,,,,,2.3445,0.536127,0.0138893,6.1192,0.0056
0.14998,92589.947,3.5827,0.70976,0.0,,2.4339,0.53733,,,,,2.4339,0.53731,0.0123645,6.25157,0.0056
0.14998,93189.949,3.5902,0.73475,,0.0,2.5236,0.53846,3.5902,0.73475,3.40895,0.293578,2.5236,0.53845,0.0122677,6.50841,0.0056
0.14999,93789.95,3.5973,0.75974,0.0,,2.6134,0.53956,,,,,2.6134,0.539512,0.010469,6.67499,0.0056
0.14998,94389.95,3.6039,0.78473,,3.7844,2.7034,0.54051,,,,,2.7034,0.540514,0.0103583,6.86555,0.0056
0.14998,94989.948,3.61,0.80972,,0.0,2.7935,0.54143,3.61,0.80972,4.21692,0.237212,2.7935,0.541438,0.00962001,7.04012,0.0056
0.14998,95589.949,3.6159,0.83471,,0.0,2.8838,0.54231,,,,,2.8838,0.542324,0.00963203,7.2066,0.0056
0.14998,96189.948,3.6217,0.8597,,,2.9742,0.54318,,,,,2.9742,0.543194,0.00911028,7.33098,0.0056
0.14998,96789.948,3.6274,0.8847,,0.0,3.0648,0.54404,,,,,3.0648,0.544025,0.0088145,7.41334,0.0056
0.14998,97389.948,3.6329,0.90969,,,3.1555,0.54486,,,,,3.1555,0.544878,0.0092409,7.51354,0.0056
0.14998,97989.948,3.6383,0.93468,,0.0,3.2464,0.54567,,,,,3.2464,0.545686,0.00868179,7.57982,0.0056
0.14998,98589.948,3.6438,0.95967,,4.6198,3.3374,0.5465,,,,,3.3374,0.546499,0.00829884,7.62993,0.0056
0.14998,99189.948,3.6492,0.98466,,,3.4285,0.54731,,,,,3.4285,0.547321,0.00905999,7.61384,0.0056
0.14998,99789.95,3.6547,1.0097,,,3.5198,0.54813,,,,,3.5198,0.548136,0.009569,7.52163,0.0056
0.14998,100389.948,3.6601,1.0346,,0.0,3.6112,0.54894,,,,,3.6112,0.548972,0.0092321,7.42133,0.0056
0.14997,100989.948,3.666,1.0596,,,3.7028,0.54979,3.666,1.0596,4.38047,0.228571,3.7028,0.549822,0.00931957,7.33907,0.0056
0.14999,101589.949,3.6718,1.0846,,,3.7945,0.55073,,,,,3.7945,0.550687,0.0102516,7.25671,0.0056
0.14998,102189.948,3.6779,1.1096,,0.0,3.8863,0.55161,3.6779,1.1096,4.1068,0.24359,3.8863,0.551608,0.0105237,7.09831,0.0056
0.14998,102789.949,3.6842,1.1346,,3.9434,3.9783,0.55256,,,,,3.9783,0.552546,0.0099473,6.78328,0.0056
0.14998,103389.948,3.6908,1.1596,,,4.0705,0.55355,,,,,4.0705,0.553541,0.0102285,6.64088,0.0056
0.14998,103989.948,3.6977,1.1846,0.0,,4.1628,0.55458,,,,,4.1628,0.55456,0.0112578,6.50851,0.0056
0.14997,104589.948,3.7048,1.2096,0.0,,4.2553,0.55561,,,,,4.2553,0.555642,0.0115091,6.43414,0.0056
0.14998,105189.95,3.7123,1.2346,0.0,0.0,4.348,0.55677,,,,,4.348,0.556775,0.0134828,6.23549,0.0056
0.14998,105789.948,3.7202,1.2596,0.0,,4.4409,0.55796,,,,,4.4409,0.557946,0.0134967,6.09318,0.0056
0.14998,106389.948,3.7282,1.2846,0.0,,4.534,0.55916,,,,,4.534,0.559161,0.0137157,6.00097,0.0056
0.14999,106989.948,3.7365,1.3096,0.0,,4.6272,0.56044,,,,,4.6272,0.560421,0.0142681,5.95272,0.0056
0.14997,107589.949,3.745,1.3346,0.0,,4.7207,0.56164,,,,,4.7207,0.561673,0.0130065,5.93469,0.0056
0.14997,108189.949,3.7537,1.3596,0.34582,2.88,4.8145,0.56294,3.7537,1.3596,2.86935,0.349333,4.8145,0.562967,0.0137177,5.97865,0.0056
0.14999,108789.949,3.7623,1.3846,0.0,0.0,4.9084,0.56431,3.7623,1.3846,2.89747,0.345333,4.9084,0.564287,0.0144101,5.89453,0.0056
0.14997,109389.95,3.7709,1.4096,,0.0,5.0025,0.56552,,,,,5.0025,0.565554,0.0138183,5.85242,0.0056
0.14997,109989.949,3.7794,1.4346,,,5.0969,0.5668,,,,,5.0969,0.566861,0.0131058,5.96071,0.0056
0.14998,110589.949,3.7879,1.4595,,,5.1915,0.56811,,,,,5.1915,0.56814,0.0133259,5.9688,0.0056
0.14998,111189.949,3.7963,1.4845,,,5.2862,0.56937,,,,,5.2862,0.569377,0.0113693,6.027,0.0056
0.14999,111789.95,3.8045,1.5095,,,5.3812,0.57064,,,,,5.3812,0.570651,0.0114764,6.06901,0.0056
0.14998,112389.949,3.8128,1.5345,,,5.4764,0.57184,,,,,5.4764,0.571875,0.0128161,5.9768,0.0056
0.14999,112989.949,3.8211,1.5595,,0.0,5.5718,0.57313,,,,,5.5718,0.573118,0.0124781,5.94278,0.0056
0.14998,113589.948,3.8295,1.5845,,3.0125,5.6674,0.57435,,,,,5.6674,0.57433,0.0127976,6.00282,0.0056
0.14998,114189.948,3.8377,1.6095,,0.0,5.7632,0.57558,3.8377,1.6095,2.95684,0.338222,5.7632,0.575584,0.0124346,6.027,0.0056
0.14998,114789.948,3.846,1.6345,,0.0,5.8592,0.57682,3.846,1.6345,3.04878,0.328,5.8592,0.57683,0.0141121,6.01082,0.0056
0.14999,115389.949,3.8543,1.6595,,3.0197,5.9554,0.57811,3.8543,1.6595,3.00649,0.332667,5.9554,0.578069,0.0138159,5.9768,0.0056
0.14999,115989.949,3.8625,1.6845,,0.0,6.0519,0.57934,,,,,6.0519,0.579347,0.0132805,6.00282,0.0056
0.14999,116589.949,3.8709,1.7095,,0.0,6.1485,0.5806,,,,,6.1485,0.580605,0.0146294,6.01891,0.0056
0.14999,117189.949,3.8793,1.7345,,2.9649,6.2454,0.58186,,,,,6.2454,0.581863,0.0135136,6.00282,0.0056
0.14999,117789.95,3.8876,1.7595,,0.0,6.3424,0.5831,,,,,6.3424,0.583105,0.0124292,5.98489,0.0056
0.14998,118389.949,3.8959,1.7844,,0.0,6.4397,0.58431,,,,,6.4397,0.584335,0.013353,6.08509,0.0056
0.14998,118989.95,3.9037,1.8094,0.31824,3.2029,6.5372,0.58548,,,,,6.5372,0.585479,0.0116477,6.45831,0.0056
0.14998,119589.95,3.9109,1.8344,0.0,,6.6348,0.58656,,,,,6.6348,0.586588,0.0112271,6.70901,0.0056
0.14998,120189.948,3.9176,1.8594,0.0,,6.7327,0.58756,,,,,6.7327,0.587592,0.00916821,6.90766,0.0056
0.14999,120789.949,3.9239,1.8844,,4.097,6.8307,0.58855,,,,,6.8307,0.588497,0.00941338,7.02404,0.0056
0.14999,121389.951,3.9299,1.9094,,,6.9288,0.58945,3.9299,1.9094,4.16667,0.24,6.9288,0.589401,0.0091874,7.04198,0.0056
0.15,121989.949,3.9362,1.9344,0.0,,7.0271,0.59043,,,,,7.0271,0.590355,0.00841574,6.69107,0.0056
0.14999,122589.948,3.9428,1.9594,0.0,,7.1256,0.59138,,,,,7.1256,0.59135,0.0103232,6.49233,0.0056
0.14998,123189.948,3.9501,1.9844,,,7.2242,0.59244,3.9501,1.9844,3.37838,0.296,7.2242,0.592416,0.0107703,6.28383,0.0056
0.14999,123789.949,3.9578,2.0094,,,7.3231,0.59363,3.9578,2.0094,3.05241,0.328,7.3231,0.593608,0.0119048,6.14328,0.0056
0.14999,124389.949,3.9663,2.0344,,0.0,7.4221,0.59491,3.9663,2.0344,2.8795,0.347333,7.4221,0.594866,0.0128296,5.81031,0.0056
0.14998,124989.947,3.9754,2.0594,0.0,,7.5213,0.59623,,,,,7.5213,0.596228,0.0143418,5.6296,0.0056
0.14998,125589.948,3.9852,2.0844,0.0,,7.6208,0.5977,,,,,7.6208,0.597713,0.013999,5.52131,0.0056
0.14998,126189.948,3.9955,2.1094,0.0,,7.7206,0.59925,,,,,7.7206,0.59924,0.0156169,5.31272,0.0056
0.14998,126789.949,4.0061,2.1344,0.0,0.0,7.8206,0.60083,4.0061,2.1344,2.23502,0.447619,7.8206,0.600842,0.0162229,5.31272,0.0056
0.14999,127389.95,4.0169,2.1594,,0.0,7.9208,0.60249,,,,,7.9208,0.602462,0.0153947,5.34674,0.0056
0.15003,127989.948,4.0278,2.1844,0.0,,8.0214,0.60429,,,,,8.0214,0.604258,0.0156723,5.36282,0.0056
0.15001,128589.951,4.0384,2.2094,,0.0,8.1222,0.6058,4.0384,2.2094,2.336,0.428095,8.1222,0.605818,0.0149586,5.46312,0.0056
0.15003,129189.948,4.0484,2.2344,,0.0,8.2233,0.60738,,,,,8.2233,0.607391,0.014605,5.51946,0.0056
0.15001,129789.949,4.058,2.2594,,0.0,8.3246,0.60874,4.058,2.2594,2.66761,0.375,8.3246,0.608758,0.013487,5.61352,0.0056
0.15001,130389.948,4.0667,2.2844,0.0,,8.4262,0.61005,,,,,8.4262,0.610052,0.0123905,4.71853,0.0056
0.15002,130569.949,4.0692,2.2919,,3.0377,8.4567,0.61046,4.0692,2.2919,3.125,0.309333,8.4567,0.61045,0.0135918,4.71853,0.0056